File: Data_14_Experiment/CA_001_C01.txt
time/s	Ewe/V	<I>/mA
1	1.49927	430.192
40	1.49948	46.8563
79	1.49931	54.2034
118	1.49935	50.846
157	1.49935	45.4019
196	1.4994	40.4602
235	1.49937	36.0358
274	1.49923	32.1192
313	1.49956	28.4835
352	1.49956	25.2331
391	1.4994	22.4113
430	1.49925	20.0782
469	1.49942	18.1003
508	1.49925	16.4451
547	1.49931	14.991
586	1.49925	13.7462
625	1.49919	12.6953
664	1.49927	11.7259
703	1.49931	10.8766
742	1.49935	10.1198
781	1.49946	9.46435
820	1.49944	8.84447
859	1.49923	8.2992
898	1.4995	7.80225
937	1.49933	7.39447
976	1.49948	6.97584
1015	1.4994	6.59577
1054	1.49935	6.24848
1093	1.49946	5.95116
1132	1.49916	5.66716
1171	1.49937	5.39686
1210	1.49937	5.1432
1249	1.49933	4.91153
1288	1.49925	4.69319
1327	1.49914	4.49783
1366	1.49931	4.3209
1405	1.49931	4.15272
1444	1.49923	3.99703
1483	1.49927	3.84651
1522	1.49906	3.71219
1561	1.49929	3.58672
1600	1.4994	3.47282
1639	1.49923	3.36055
1678	1.49935	3.25582
1717	1.49914	3.15824
1756	1.49958	3.06763
1795	1.49942	2.97809
1833.95	-0.00117415	-2.72492
1872.95	-0.00102156	-0.626198
1911.95	-0.00107878	-0.130304
1950.95	-0.000983412	0.0426269
1989.95	-0.00092619	0.195633
2028.95	-0.00109786	0.283799
2067.95	-0.00105971	0.324547
2106.95	-0.00113601	0.320963
2145.95	-0.00104063	0.323628
2184.95	-0.000907116	0.350039
2223.95	-0.00113601	0.354284
2262.95	-0.00125045	0.350523
2301.95	-0.000983412	0.315271
2340.95	-0.00092619	0.307462
2379.95	-0.000983412	0.299216
2418.95	-0.00102156	0.29538
2457.95	-0.00100249	0.273204
2496.95	-0.00119323	0.247339
2535.95	-0.00107878	0.234375
2574.95	-0.00100249	0.225269
2613.95	-0.00102156	0.220394
2652.95	-0.000907116	0.196931
2691.95	-0.00100249	0.183651
2730.95	-0.00115508	0.173317
2769.95	-0.00113601	0.174005
2808.95	-0.00115508	0.160442
2847.95	-0.00107878	0.148403
2886.95	-0.00092619	0.141112
2925.95	-0.00115508	0.140296
2964.95	-0.00111693	0.135168
3003.95	-0.000964338	0.12506
3042.95	-0.00102156	0.120013
3081.95	-0.00092619	0.11776
3120.95	-0.00107878	0.119508
3159.95	-0.00100249	0.110433
3198.95	-0.00119323	0.1048
3237.95	-0.000945264	0.101531
3276.95	-0.000983412	0.105307
3315.95	-0.00104063	0.0980252
3354.95	-0.000983412	0.0945264
3393.95	-0.00083082	0.0929181
3432.95	-0.00109786	0.0945546
3471.95	-0.00092619	0.0925734
3510.95	-0.00100249	0.0876444
3549.95	-0.00102156	0.0852461
3588.95	-0.000907116	0.0862374
3627.95	-0.00107878	0.0897559
3666.95	-0.000983412	0.0826024
3705.95	-0.00100249	0.0808214
3744.95	-0.00115508	0.078751
3783.95	-0.00111693	0.0828719
3822.95	-0.00100249	0.0786561
3861.95	-0.000964338	0.0764273
3900.95	-0.00100249	0.0749084
3939.95	-0.00107878	0.0781914
3978.95	-0.00104063	0.0763857
4017.95	-0.00109786	0.0730569
4056.95	-0.00109786	0.0711493
4095.95	-0.00107878	0.0722947
4134.95	-0.000907116	0.07378
4173.95	-0.00111693	0.0694807
4212.95	-0.000868968	0.0690567
4251.95	-0.00100249	0.0677708
4290.95	-0.00107878	0.0710953
4329.95	-0.00119323	0.0679628
4368.95	-0.00100249	0.0661804
4407.95	-0.000907116	0.0650324
4446.95	-0.00092619	0.0686427
4485.95	-0.00109786	0.0667323
4524.95	-0.00105971	0.0637761
4563.95	-0.00107878	0.0637872
4602.95	-0.00107878	0.0659916
4641.95	-0.00100249	0.0664493
4680.95	-0.00102156	0.0622137
4719.95	-0.000907116	0.0617114
4758.95	-0.00102156	0.0604189
4797.95	-0.00107878	0.0634227
4836.95	-0.00083082	0.0622943
4875.95	-0.000735449	0.0607355
4914.95	-0.00117415	0.0583141
4953.95	-0.000849894	0.0614416
4992.95	-0.000945264	0.0602226
5031.95	-0.00115508	0.0589496
5070.95	-0.00107878	0.0583363
5109.95	-0.00104063	0.0594883
5148.95	-0.00107878	0.0600542
5187.95	-0.000964338	0.0575417
5226.95	-0.00102156	0.0572005
5265.95	-0.00104063	0.056454
5304.95	-0.00113601	0.0590805
5343.95	-0.000907116	0.0559296
5382.95	-0.00092619	0.0561138
5421.95	-0.00104063	0.0551938
5460.95	-0.00092619	0.0585985
5499.95	-0.000888042	0.0565691
5538.95	-0.000983412	0.0543867
5577.95	-0.00104063	0.0544663
5616.95	-0.00100249	0.055906
5655.95	-0.00102156	0.0570666
5694.95	-0.00105971	0.0532394
5733.95	-0.00102156	0.0535907
5772.95	-0.000907116	0.0535096
5811.95	-0.00115508	0.0553268
5850.95	-0.000945264	0.0532584
5889.95	-0.00104063	0.0521343
5928.95	-0.000945264	0.052276
5967.95	-0.00113601	0.0549415
6006.95	-0.00100249	0.0521999
6045.95	-0.00115508	0.0511123
6084.95	-0.00109786	0.0508748
6123.95	-0.00109786	0.0527081
6162.95	-0.00111693	0.0528422
6201.95	-0.00104063	0.0501743
6240.95	-0.00102156	0.0490559
6279.95	-0.00092619	0.0516839
6318.95	-0.00092619	0.0538323
6357.95	-0.000868968	0.0501568
6396.95	-0.00104063	0.0491875
6435.95	-0.00111693	0.0476753
6474.95	-0.00104063	0.0502319
6513.95	-0.00107878	0.0491693
6552.95	-0.00109786	0.0485134
6591.95	-0.00115508	0.0486734
6630.95	-0.00126952	0.0507966
6669.95	-0.00105971	0.0504286
6708.95	-0.00107878	0.0473957
6747.95	-0.00107878	0.0481164
6786.95	-0.000888042	0.0481936
6825.95	-0.00109786	0.0505812
6864.95	-0.000907116	0.047863
6903.95	-0.00111693	0.049113
6942.95	-0.000888042	0.0481213
6981.95	-0.000964338	0.0500704
7020.95	-0.00107878	0.0485135
7059.95	-0.00105971	0.0474771
7098.95	-0.00107878	0.0468146
7137.95	-0.00100249	0.047877
7176.95	-0.00125045	0.048366
7215.95	-0.00113601	0.0475081
7254.95	-0.00102156	0.0467265
7293.95	-0.00092619	0.046731
7332.95	-0.00107878	0.0479844
7371.95	-0.00107878	0.0455547
7410.95	-0.00123138	0.0458207
7449.95	-0.000945264	0.046389
7488.95	-0.00100249	0.0492156
7527.95	-0.00100249	0.0466016
7566.95	-0.00109786	0.0452426
7605.95	-0.00102156	0.0445632
7644.95	-0.000945264	0.0471235
7683.95	-0.000964338	0.0470786
7722.95	-0.000888042	0.045159
7761.95	-0.00100249	0.044605
7800.95	-0.00102156	0.0451562
7839.95	-0.00111693	0.0471141
7878.95	-0.00119323	0.0454216
7917.95	-0.000983412	0.0453318
7956.95	-0.000964338	0.0449676
7995.95	-0.000868968	0.0469659
8034.95	-0.000945264	0.0443294
8073.95	-0.00102156	0.0436204
8112.95	-0.00113601	0.0439134
8151.95	-0.00100249	0.0461457
8190.95	-0.00107878	0.0450012
8229.95	-0.00105971	0.0431391
8268.95	-0.00100249	0.0434298
8307.95	-0.00113601	0.0450899
8346.95	-0.000773597	0.0459449
8385.95	-0.00104063	0.0433124
8424.95	-0.000888042	0.043273
8463.95	-0.000907116	0.0426104
8502.95	-0.000964338	0.0444258
8541.95	-0.00105971	0.0431363
8580.95	-0.00102156	0.0434605
8619.95	-0.00083082	0.0432747
8658.95	-0.00111693	0.0449994
8697.95	-0.00109786	0.0444885
8736.95	-0.00105971	0.042944
8775.95	-0.00092619	0.0428726
8814.95	-0.00109786	0.0441131
8853.95	-0.00105971	0.0443109
8892.95	-0.00113601	0.0418899
8931.95	-0.00105971	0.0417452
8970.95	-0.00105971	0.0411676
9009.95	-0.00102156	0.0433228
9048.95	-0.00092619	0.0428547
9087.95	-0.000945264	0.0416082
9126.95	-0.00109786	0.0416793
9165.95	-0.000945264	0.0427542
9204.95	-0.000868968	0.0420488
9243.95	-0.00102156	0.0411141
9282.95	-0.00100249	0.0414604
9321.95	-0.000964338	0.0415926
9360.95	-0.00104063	0.0420652
9399.95	-0.00083082	0.0401295
9438.95	-0.00113601	0.0407469
9477.95	-0.00104063	0.0405312
9516.95	-0.00117415	0.0425679
9555.95	-0.000983412	0.0411096
9594.95	-0.00102156	0.0402809
9633.95	-0.00109786	0.0404347
9672.95	-0.00109786	0.0414282
9711.95	-0.000983412	0.0406659
9750.95	-0.000849894	0.0395234
9789.95	-0.00109786	0.0398292
9828.95	-0.000888042	0.0407858
9867.95	-0.00102156	0.0415236
9906.95	-0.00107878	0.0402819
9945.95	-0.000964338	0.0399018
9984.95	-0.000907116	0.0395723
10024	-0.000964338	0.0412688
10063	-0.000945264	0.0402993
10102	-0.000945264	0.0402276
10141	-0.00115508	0.0397055
10180	-0.000964338	0.0407634
10219	-0.00117415	0.039952
10258	-0.00117415	0.0396116
10297	-0.000888042	0.0396705
10336	-0.000945264	0.0406667
10375	-0.00111693	0.0404912
10414	-0.00092619	0.038782
10453	-0.00100249	0.0391236
10492	-0.00109786	0.039125
10531	-0.000907116	0.0399
10570	-0.00092619	0.038497
10609	-0.00107878	0.0383711
10648	-0.000983412	0.0382886
10687	-0.000868968	0.0400761
10726	-0.00102156	0.0387856
10765	-0.00105971	0.0383085
10804	-2.00077	-118.429
10843	-2.00106	-74.0494
10882	-2.00102	-45.4933
10921	-2.00106	-30.9137
10960	-2.00086	-22.3029
10999	-2.00079	-17.0334
11038	-2.00083	-13.7328
11077	-2.00092	-11.5004
11116	-2.00094	-9.95211
11155	-2.00077	-8.806
11194	-2.00065	-7.94643
11233	-2.00081	-7.26311
11272	-2.00081	-6.71341
11311	-2.0009	-6.26386
11350	-2.00079	-5.89283
11389	-2.00083	-5.57805
11428	-2.00075	-5.29793
11467	-2.00071	-5.06767
11506	-2.00085	-4.86164
11545	-2.00094	-4.69983
11584	-2.00077	-4.53021
11623	-2.00085	-4.39003
11662	-2.00088	-4.25888
11701	-0.0012123	261.986
11740	-0.00115508	4.63354
11779	-0.00105971	2.63998
11818	-0.00109786	1.93512
11857	-0.00100249	1.61921
11896	-0.00119323	1.43108
11935	-0.000792671	1.30412
11974	-0.00102156	1.22254
12013	-0.00083082	1.16659
12052	-0.000964338	1.12699
12091	-0.00105971	1.0756
12130	-0.00109786	1.04135
12169	-0.00102156	1.00432
12208	-0.000888042	0.973834
12247	-0.000983412	0.929968
12286	-0.00105971	0.90118
12325	-0.000945264	0.86884
12364	-0.00109786	0.845309
12403	-0.00105971	0.818623
12442	-0.00113601	0.791292
12481	-0.00107878	0.76998
12520	-0.00102156	0.748743
12559	-0.000907116	0.728476
12598	-0.00100249	0.701179
12637	-0.00105971	0.682355
12676	-0.00113601	0.665052
12715	-0.00100249	0.653822
12754	-0.00092619	0.633692
12793	-0.00092619	0.618472
12832	-0.00100249	0.605381
12871	-0.000868968	0.596379
12910	-0.00111693	0.581822
12949	-0.00119323	0.569767
12988	-0.000983412	0.560275
13027	-0.000945264	0.551764
13066	-0.000945264	0.543671
13105	-0.00104063	0.53075
13144	-0.00100249	0.522848
13183	-0.00104063	0.515749
13222	-0.00092619	0.51294
13261	-0.00107878	0.502287
13300	-0.000983412	0.495199
13339	-0.00083082	0.488684
13378	-0.0012123	0.483201
13417	-0.0012123	0.475145
13456	-0.00102156	0.467698
13495	-0.00105971	0.462366
13534	-0.000964338	0.45828
13573	-0.00107878	0.454283
13612	-0.000964338	0.445391
13651	-0.000983412	0.440445
13690	-0.00104063	0.435717
13729	-0.0012123	0.433994
13768	-0.00100249	0.425377
13807	-0.00100249	0.419855
13846	-0.000868968	0.415529
13885	-0.00104063	0.413629
13924	-0.000868968	0.406778
13963	-0.00113601	0.400464
14002	-0.00105971	0.396597
14041	-0.00102156	0.393638
14080	-0.00092619	0.389693
14119	-0.00111693	0.382767
14158	-0.00105971	0.379334
14197	-0.00111693	0.375135
14236	-0.00100249	0.373327
14275	-0.00102156	0.366391
14314	-0.00115508	0.362438
14353	-0.00092619	0.358039
14392	-0.00100249	0.356729
14431	1.49939	31.513
14470	1.49942	19.3327
14509	1.49929	14.8313
14548	1.49935	12.4176
14587	1.49935	10.9149
14626	1.49929	9.87862
14665	1.49929	9.09235
14704	1.49919	8.46379
14743	1.49927	7.96385
14782	1.49927	7.55282
14821	1.49929	7.19127
14860	1.49946	6.8762
14899	1.49952	6.58622
14938	1.49939	6.34233
14977	1.49933	6.1098
15016	1.49916	5.90025
15055	1.49925	5.71072
15094	1.49916	5.52352
15133	1.49914	5.35448
15172	1.49929	5.18754
15211	1.49921	5.03373
15250	1.49927	4.90749
15289	1.49914	4.736
15328	1.49935	4.59547
15367	1.4994	4.45186
15406	1.49933	4.31934
15445	1.49935	4.1848
15484	1.49939	4.05133
15523	1.49935	3.92247
15562	1.49948	3.79461
15601	1.49919	3.68444
15640	1.49944	3.556
15679	1.49958	3.43664
15718	1.49935	3.31445
15757	1.49906	3.2437
15796	1.49935	3.12571
15835	1.49925	3.02318
15874	1.49937	2.93098
15913	1.49939	2.88128
15952	1.49946	2.79213
15991	1.49933	2.70253
16030	1.49944	2.6253
16069	1.49921	2.57027
16108	1.49942	2.51274
16147	1.49921	2.42176
16186	1.49919	2.36322
16225	-0.000945264	-4.0129
16264	-0.000983412	-0.646703
16303	-0.00132675	-0.164159
16342	-0.000983412	0.0352791
16381	-0.000907116	0.137068
16420	-0.00111693	0.20061
16459	-0.000983412	0.22689
16498	-0.00115508	0.256992
16537	-0.00104063	0.280604
16576	-0.00102156	0.297956
16615	-0.00104063	0.296817
16654	-0.000983412	0.284629
16693	-0.00100249	0.276143
16732	-0.00100249	0.266314
16771	-0.00107878	0.256864
16810	-0.000945264	0.234782
16849	-0.00100249	0.219734
16888	-0.000945264	0.206478
16927	-0.000907116	0.199258
16966	-0.00092619	0.183759
17005	-0.00109786	0.171462
17044	-0.00130767	0.162514
17083	-0.00105971	0.157342
17122	-0.00109786	0.149551
17161	-0.00100249	0.139925
17200	-0.00115508	0.134134
17239	-0.000964338	0.12933
17278	-0.00100249	0.126624
17317	-0.000983412	0.119001
17356	-0.00100249	0.115031
17395	-0.000964338	0.111438
17434	-0.00104063	0.11154
17473	-0.00104063	0.105918
17512	-0.0012123	0.102078
17551	-0.00100249	0.099506
17590	-0.00107878	0.0994034
17629	-0.00100249	0.0967607
17668	-0.000907116	0.0928431
17707	-0.00100249	0.0908422
17746	-0.00100249	0.0897888
17785	-0.00102156	0.0892945
17824	-0.00104063	0.085169
17863	-0.000964338	0.0832684
17902	-0.00100249	0.0819145
17941	-0.00105971	0.0832966
17980	-0.00105971	0.0799252
18019	-0.000907116	0.0778755
18058	-0.00100249	0.0766758
18097	-0.00126952	0.0776576
18136	-0.00111693	0.0768484
18175	-0.00107878	0.0742697
18214	-0.00092619	0.0734597
18253	-0.00119323	0.0736187
18292	-0.000945264	0.0739999
18331	-0.00113601	0.0710928
18370	-0.000964338	0.0699966
18409	-0.00107878	0.0694855
18448	-0.00105971	0.070664
18487	-0.000964338	0.0679553
18526	-0.00100249	0.0663987
18565	-0.000945264	0.0661244
18604	-0.000849894	0.0673819
18643	-0.00107878	0.0655314
18682	-0.00092619	0.0638998
18721	-0.00104063	0.0626962
18760	-0.000964338	0.0637676
18799	-0.00119323	0.0639035
18838	-0.00105971	0.0611938
18877	-0.000773597	0.0608623
18916	-0.00111693	0.0611506
18955	-0.000868968	0.0621045
18994	-0.00109786	0.0594445
19033	-0.000907116	0.0585377
19072	-0.00104063	0.0590519
19111	-0.000983412	0.0601044
19150	-0.00104063	0.0584597
19189	-0.000907116	0.0572248
19228	-0.00100249	0.0572179
19267	-0.000964338	0.0571327
19306	-0.000964338	0.0576385
19345	-0.000964338	0.055174
19384	-0.00100249	0.0546382
19423	-0.000868968	0.0541871
19462	-0.000983412	0.0553683
19501	-0.00105971	0.054044
19540	-0.000907116	0.0531867
19579	-0.00100249	0.0529177
19618	-0.00092619	0.0541892
19657	-0.000945264	0.0531622
19696	-0.00115508	0.0525267
19735	-0.000773597	0.0520973
19774	-0.00125045	0.052489
19813	-0.000945264	0.0524978
19852	-0.00126952	0.0504389
19891	-0.000964338	0.0504481
19930	-0.000945264	0.0504183
19969	-0.000945264	0.0513172
20008	-0.00107878	0.0491764
20047	-0.000868968	0.0481352
20086	-0.000907116	0.0475759
20125	-0.00100249	0.0493487
20164	-0.00113601	0.0487925
20203	-0.000888042	0.0471817
20242	-0.00111693	0.0463639
20281	-0.00104063	0.0468006
20320	-0.00111693	0.0467615
20359	-0.00105971	0.0460202
20398	-0.00113601	0.0456783
20437	-0.00105971	0.0446873
20476	-0.00100249	0.0451318
20515	-0.00100249	0.0438113
20554	-0.00100249	0.0438891
20593	-0.00105971	0.0436288
20632	-0.00111693	0.0446312
20671	-0.000945264	0.0433503
20710	-0.00111693	0.042485
20749	-0.00119323	0.0422137
20788	-0.000945264	0.0425271
20827	-0.00111693	0.0424415
20866	-0.00104063	0.0418819
20905	-0.00126952	0.0415579
20944	-0.00104063	0.0412774
20983	-0.00109786	0.0420377
21022	-0.00100249	0.0409182
21061	-0.00104063	0.0408276
21100	-0.00105971	0.0404114
21139	-0.00104063	0.0416428
21178	-0.00102156	0.0405506
21217	-0.00115508	0.0397797
21256	-0.00113601	0.0400482
21295	-0.00100249	0.0405581
21334	-0.00102156	0.0399542
21373	-0.000945264	0.038963
21412	-0.00113601	0.0392154
21451	-0.00100249	0.039369
21490	-0.000983412	0.0392493
21529	-0.0012123	0.0380978
21568	-0.00104063	0.0380207
21607	-0.00109786	0.037776
21646	-0.000888042	0.0386041
21685	-0.000945264	0.0375869
21724	-0.00104063	0.0369257
21763	-0.00107878	0.0366874
21802	-0.00102156	0.0372487
21841	-0.000983412	0.0369144
21880	-0.000945264	0.0359978
21919	-0.000983412	0.035991
21958	-0.00115508	0.0361232
21997	-0.00105971	0.0363342
22036	-0.00107878	0.035389
22075	-0.000964338	0.0354044
22114	-0.00104063	0.0352285
22153	-0.00105971	0.03601
22192	-0.00102156	0.0351954
22231	-0.00107878	0.0347918
22270	-0.00107878	0.0348078
22309	-0.000983412	0.0352252
22348	-0.00107878	0.0346071
22387	-0.000983412	0.0339942
22426	-0.000907116	0.0342128
22465	-0.00100249	0.034379
22504	-0.000964338	0.034501
22543	-0.00117415	0.0335172
22582	-0.00109786	0.0332319
22621	-0.000964338	0.0328418
22660	-0.000945264	0.033665
22699	-0.00100249	0.0331075
22738	-0.000945264	0.0327356
22777	-0.000983412	0.0327774
22816	-0.00111693	0.0332805
22855	-0.00113601	0.0327878
22894	-0.00105971	0.032377
22933	-0.000964338	0.0325343
22972	-0.00083082	0.0326379
23011	-0.00100249	0.0325886
23050	-0.000888042	0.031943
23089	-0.00104063	0.0320278
23128	-0.0012123	0.0317538
23167	-0.00100249	0.0321393
23206	-0.00102156	0.0314852
23245	-0.00100249	0.0315316
23284	-0.000907116	0.0313382
23323	-0.000888042	0.0316236
23362	-0.00113601	0.0313084
23401	-0.00104063	0.0310332
23440	-0.00115508	0.0310551
23479	-0.00109786	0.0310849
23518	-0.00107878	0.0310249
23557	-0.00109786	0.030271
23596	-0.000888042	0.0301885
23635	-0.00104063	0.0299433
23674	-0.000888042	0.030649
23713	-0.000964338	0.0300773
23752	-0.00105971	0.0301075
23791	-0.000945264	0.0298087
23830	-0.00105971	0.030319
23869	-0.000964338	0.0299263
23908	-0.00115508	0.0298179
23947	-0.00111693	0.0294711
23986	-0.00104063	0.0295946
24025	-0.000964338	0.0295603
24064	-0.00105971	0.029061
24103	-0.00111693	0.0287409
24142	-0.00092619	0.0287498
24181	-0.000792671	0.0289881
24220	-0.00092619	0.0282922
24259	-0.00109786	0.0280653
24298	-0.00105971	0.0281556
24337	-0.000907116	0.0290048
24376	-0.000945264	0.0285014
24415	-0.00104063	0.0283389
24454	-0.000907116	0.0278337
24493	-0.00102156	0.0278868
24532	-0.00104063	0.0279536
24571	-0.000888042	0.0273096
24610	-0.00105971	0.0270545
24649	-0.000964338	0.0271167
24688	-0.00105971	0.0275803
24727	-0.00092619	0.0269798
24766	-0.00109786	0.0270817
24805	-0.000945264	0.0270005
24844	-0.00104063	0.0273279
24883	-0.000983412	0.0267069
24922	-0.00105971	0.0264372
24961	-0.000983412	0.0265221
25000	-0.00104063	0.0270192
25039	-0.00111693	0.0269055
25078	-0.00115508	0.0261804
25117	-0.000964338	0.0263612
25156	-0.00104063	0.0263013
25195	-0.00092619	0.026384
25234	-2.00081	-50.3663
25273	-2.00071	-27.3624
25312	-2.00069	-17.9156
25351	-2.00069	-13.2
25390	-2.00081	-10.5004
25429	-2.00094	-8.75855
25468	-2.00092	-7.5553
25507	-2.00088	-6.66632
25546	-2.00088	-5.99799
25585	-2.00081	-5.46655
25624	-2.00079	-5.04878
25663	-2.00077	-4.72136
25702	-2.0009	-4.45557
25741	-2.00083	-4.21169
25780	-2.00085	-4.00772
25819	-2.00092	-3.83821
25858	-2.0009	-3.69461
25897	-2.0009	-3.55699
25936	-2.0009	-3.43159
25975	-2.00085	-3.33032
26014	-2.00094	-3.24315
26053	-2.00077	-3.16552
26092	-2.00098	-3.08055
26131	-0.00092619	4.77841
26170	-0.000888042	2.26036
26209	-0.00115508	1.58455
26248	-0.00100249	1.24261
26287	-0.00109786	1.05446
26326	-0.000964338	0.933157
26365	-0.00117415	0.854161
26404	-0.00107878	0.78346
26443	-0.00100249	0.726829
26482	-0.00115508	0.684363
26521	-0.000964338	0.651402
26560	-0.00100249	0.619003
26599	-0.00105971	0.584158
26638	-0.00113601	0.55743
26677	-0.00111693	0.53352
26716	-0.00115508	0.514934
26755	-0.00111693	0.490735
26794	-0.00111693	0.468643
26833	-0.00092619	0.450077
26872	-0.000907116	0.436975
26911	-0.00111693	0.418847
26950	-0.000945264	0.40363
26989	-0.000868968	0.391686
27028	-0.000907116	0.381708
27067	-0.000945264	0.370604
27106	-0.00107878	0.358626
27145	-0.00115508	0.349947
27184	-0.00111693	0.341652
27223	-0.000983412	0.335333
27262	-0.00105971	0.325919
27301	-0.00105971	0.318262
27340	-0.00092619	0.312261
27379	-0.00100249	0.308281
27418	-0.00100249	0.30039
27457	-0.000792671	0.2938
27496	-0.000888042	0.289154
27535	-0.00107878	0.285699
27574	-0.000945264	0.280635
27613	-0.000983412	0.274528
27652	-0.00100249	0.270025
27691	-0.00092619	0.265614
27730	-0.00100249	0.262915
27769	-0.00105971	0.257224
27808	-0.000868968	0.253379
27847	-0.000964338	0.250021
27886	-0.00100249	0.248066
27925	-0.00102156	0.243511
27964	-0.000945264	0.239297
28003	-0.00111693	0.235698
28042	-0.00117415	0.233736
28081	-0.00104063	0.230844
28120	-0.00105971	0.226633
28159	-0.00102156	0.223741
28198	-0.00126952	0.221357
28237	-0.000907116	0.219444
28276	-0.00102156	0.215269
28315	-0.000964338	0.212487
28354	-0.00109786	0.209541
28393	-0.00111693	0.208274
28432	-0.00117415	0.204742
28471	-0.000964338	0.201648
28510	-0.000907116	0.199369
28549	-0.00111693	0.197985
28588	-0.000964338	0.195641
28627	-0.00109786	0.192482
28666	-0.00105971	0.190554
28705	-0.00113601	0.18857
28744	-0.000868968	0.18703
28783	-0.000945264	0.183772
28822	1.49935	28.7316
28861	1.49918	16.0698
28900	1.49918	11.99
28939	1.49939	9.88197
28978	1.49942	8.61223
29017	1.49927	7.73423
29056	1.49923	7.08476
29095	1.4994	6.57352
29134	1.49929	6.12723
29173	1.49933	5.74452
29212	1.49929	5.39486
29251	1.49929	5.09183
29290	1.49937	4.7957
29329	1.49931	4.5382
29368	1.49919	4.28713
29407	1.49918	4.06421
29446	1.49929	3.85532
29485	1.49927	3.66145
29524	1.49939	3.47891
29563	1.49933	3.31016
29602	1.49929	3.14237
29641	1.49935	2.98072
29680	1.49927	2.85223
29719	1.49925	2.74483
29758	1.49923	2.64798
29797	1.49927	2.53541
29836	1.49933	2.44732
29875	1.49925	2.36743
29914	1.49937	2.32408
29953	1.49944	2.24045
29992	1.49925	2.18183
30031	1.49923	2.13419
30070	1.49927	2.10484
30109	1.49946	2.04856
30148	1.49927	2.00107
30187	1.49921	1.96635
30226	1.49918	1.93979
30265	1.49914	1.90729
30304	1.49935	1.85913
30343	1.49929	1.83056
30382	1.49931	1.80495
30421	1.49942	1.79097
30460	1.49918	1.75062
30499	1.49916	1.72595
30538	1.49912	1.70467
30577	1.49923	1.69963
30616	-0.00125045	-5.3315
30655	-0.000888042	-0.468615
30694	-0.00109786	-0.0441293
30733	-0.00111693	0.0941517
30772	-0.00107878	0.145002
30811	-0.00100249	0.172995
30850	-0.00113601	0.19262
30889	-0.00102156	0.19984
30928	-0.00100249	0.199572
30967	-0.000964338	0.183701
31006	-0.00111693	0.170547
31045	-0.00117415	0.156632
31084	-0.000888042	0.147564
31123	-0.00104063	0.134467
31162	-0.000964338	0.123542
31201	-0.00105971	0.115459
31240	-0.00111693	0.109629
31279	-0.000868968	0.10313
31318	-0.00125045	0.095769
31357	-0.0012123	0.0916159
31396	-0.00115508	0.087903
31435	-0.00107878	0.0857739
31474	-0.000983412	0.0805395
31513	-0.00104063	0.0778446
31552	-0.00100249	0.0751574
31591	-0.00109786	0.0745876
31630	-0.00102156	0.0711083
31669	-0.000888042	0.0685606
31708	-0.00102156	0.0671085
31747	-0.00126952	0.0664886
31786	-0.00083082	0.0648549
31825	-0.00109786	0.0626727
31864	-0.000983412	0.0614215
31903	-0.00113601	0.0603453
31942	-0.00111693	0.0599475
31981	-0.00105971	0.0576391
32020	-0.00102156	0.0566307
32059	-0.00111693	0.0559763
32098	-0.00104063	0.0564152
32137	-0.00105971	0.0544368
32176	-0.000964338	0.0535167
32215	-0.00100249	0.0527637
32254	-0.00113601	0.0529797
32293	-0.00115508	0.0518854
32332	-0.000983412	0.0504643
32371	-0.00104063	0.0498466
32410	-0.000945264	0.049469
32449	-0.00102156	0.0492646
32488	-0.00104063	0.047789
32527	-0.00092619	0.0473485
32566	-0.00104063	0.0469387
32605	-0.000964338	0.0475874
32644	-0.00113601	0.046268
32683	-0.000868968	0.0452077
32722	-0.000945264	0.0447574
32761	-0.000888042	0.0451338
32800	-0.00102156	0.0444569
32839	-0.00102156	0.0437659
32878	-0.000907116	0.0434582
32917	-0.00102156	0.0435098
32956	-0.000907116	0.0434536
32995	-0.000868968	0.0422086
33034	-0.00104063	0.0416386
33073	-0.00102156	0.0415143
33112	-0.00104063	0.0420756
33151	-0.000907116	0.0409277
33190	-0.00104063	0.0404339
33229	-0.00100249	0.0401089
33268	-0.00105971	0.0405281
33307	-0.00100249	0.0398956
33346	-0.000983412	0.0392757
33385	-0.00107878	0.0389297
33424	-0.00111693	0.0388718
33463	-0.00115508	0.0391654
33502	-0.000983412	0.0381284
33541	-0.00105971	0.0379896
33580	-0.00100249	0.0377866
33619	-0.000811746	0.0380811
33658	-0.00117415	0.0373461
33697	-0.000907116	0.0367562
33736	-0.00109786	0.0365621
33775	-0.000983412	0.0372058
33814	-0.00126952	0.0367531
33853	-0.00104063	0.0360419
33892	-0.00119323	0.0357266
33931	-0.000849894	0.0357689
33970	-0.00102156	0.0357765
34009	-0.000907116	0.0349607
34048	-0.000964338	0.0348059
34087	-0.00115508	0.0347135
34126	-0.00092619	0.0348987
34165	-0.0012123	0.0343451
34204	-0.00102156	0.0339063
34243	-0.00100249	0.0335491
34282	-0.000945264	0.0342278
34321	-0.00104063	0.0337164
34360	-0.00102156	0.0330221
34399	-0.000907116	0.0330587
34438	-0.00105971	0.0332565
34477	-0.00104063	0.0333474
34516	-0.00100249	0.0326619
34555	-0.00092619	0.032652
34594	-0.000888042	0.0324694
34633	-0.00092619	0.0327333
34672	-0.000945264	0.0319353
34711	-0.00104063	0.0315702
34750	-0.000888042	0.0313294
34789	-0.000888042	0.0318067
34828	-0.00111693	0.0312571
34867	-0.00083082	0.0306676
34906	-0.00111693	0.0309254
34945	-0.00104063	0.0310732
34984	-0.000945264	0.0310559
35023	-0.00119323	0.0303236
35062	-0.000983412	0.0301471
35101	-0.000964338	0.0300336
35140	-0.00107878	0.0301249
35179	-0.00109786	0.029687
35218	-0.00104063	0.0296019
35257	-0.00111693	0.0298308
35296	-0.00100249	0.030109
35335	-0.00119323	0.0296986
35374	-0.000983412	0.0292909
35413	-0.00107878	0.0290683
35452	-0.000849894	0.0292713
35491	-0.000983412	0.029229
35530	-0.00107878	0.028568
35569	-0.00092619	0.0284572
35608	-0.00104063	0.0284237
35647	-0.00107878	0.0287458
35686	-0.00107878	0.028336
35725	-0.000792671	0.0281662
35764	-0.00111693	0.0280303
35803	-0.000983412	0.0284878
35842	-0.00107878	0.0280627
35881	-0.00111693	0.0277247
35920	-0.00102156	0.0275821
35959	-0.000964338	0.0277576
35998	-0.0012886	0.0276857
36037	-0.00105971	0.0273564
36076	-0.000983412	0.0273031
36115	-0.000868968	0.0272318
36154	-0.00111693	0.0272394
36193	-0.000964338	0.0266741
36232	-0.00115508	0.0264687
36271	-0.000868968	0.0266213
36310	-0.00107878	0.0267902
36349	-0.000868968	0.0265449
36388	-0.00115508	0.0261729
36427	-0.000964338	0.0260244
36466	-0.000888042	0.0261602
36505	-0.000888042	0.0260928
36544	-0.00104063	0.0257626
36583	-0.00109786	0.0259489
36622	-0.00104063	0.0258472
36661	-0.00102156	0.0259108
36700	-0.000811746	0.0254543
36739	-0.000983412	0.0253607
36778	-0.00111693	0.0252789
36817	-0.00102156	0.0253976
36856	-0.000983412	0.0250406
36895	-0.00104063	0.0248259
36934	-0.00105971	0.0247419
36973	-0.000983412	0.0249383
37012	-0.00102156	0.0245846
37051	-0.00105971	0.0244789
37090	-0.00115508	0.0244345
37129	-0.00100249	0.0244539
37168	-0.00105971	0.0244221
37207	-0.00107878	0.0241167
37246	-0.00100249	0.0241504
37285	-0.00107878	0.0241309
37324	-0.000983412	0.0242908
37363	-0.00105971	0.0237824
37402	-0.000945264	0.0235601
37441	-0.00107878	0.0236539
37480	-0.00109786	0.0238035
37519	-0.00102156	0.0235847
37558	-0.00104063	0.0231168
37597	-0.00105971	0.0232864
37636	-0.00113601	0.0232848
37675	-0.00111693	0.0233341
37714	-0.000983412	0.0229742
37753	-0.000945264	0.0230546
37792	-0.00109786	0.0228721
37831	-0.000868968	0.0230521
37870	-0.00092619	0.0227708
37909	-0.00092619	0.0225464
37948	-0.000983412	0.0225955
37987	-0.00100249	0.0227735
38026	-0.00105971	0.0225501
38065	-0.00104063	0.0222875
38104	-0.000983412	0.0222949
38143	-0.00102156	0.0223147
38182	-0.00092619	0.0222354
38221	-0.00105971	0.0219085
38260	-0.00115508	0.021793
38299	-0.000983412	0.0218277
38338	-0.00111693	0.0221142
38377	-0.00117415	0.02176
38416	-0.00104063	0.0217157
38455	-0.00115508	0.0215566
38494	-0.00102156	0.0218692
38533	-0.00111693	0.0217496
38572	-0.00104063	0.021523
38611	-0.000945264	0.0214235
38650	-0.00107878	0.0215115
38689	-0.00111693	0.0215566
38728	-0.00115508	0.0213047
38767	-0.00109786	0.0211307
38806	-0.00105971	0.0210644
38845	-0.00111693	0.0213415
38884	-0.00105971	0.0211624
38923	-0.000868968	0.0210895
38962	-0.00113601	0.0209599
39001	-0.00104063	0.0212349
39040	-0.000907116	0.0209483
39079	-0.00115508	0.0206291
39118	-0.00109786	0.0205875
39157	-0.000964338	0.020875
39196	-0.000888042	0.0208978
39235	-0.00109786	0.0205728
39274	-0.00119323	0.0204128
39313	-0.00111693	0.0202917
39352	-0.000983412	0.020593
39391	-0.00104063	0.0203255
39430	-0.00083082	0.02025
39469	-0.00102156	0.0201954
39508	-0.00117415	0.0205898
39547	-0.000945264	0.0202715
39586	-0.00109786	0.0201524
39625	-2.00096	-39.6153
39664	-2.00081	-17.4323
39703	-2.00083	-11.6184
39742	-2.00075	-8.79742
39781	-2.00094	-7.20911
39820	-2.00067	-6.17828
39859	-2.00086	-5.50101
39898	-2.00079	-4.95452
39937	-2.00094	-4.55773
39976	-2.00071	-4.24251
40015	-2.00086	-4.00797
40054	-2.00079	-3.79604
40093	-2.00075	-3.60831
40132	-2.00083	-3.46253
40171	-2.00077	-3.34296
40210	-2.00092	-3.24589
40249	-2.00067	-3.13384
40288	-2.00092	-3.05231
40327	-2.00085	-2.97757
40366	-2.00085	-2.93199
40405	-2.00088	-2.86043
40444	-2.00073	-2.80481
40483	-2.00092	-2.75899
40522	-0.000754523	6.83697
40561	-0.00102156	2.07598
40600	-0.000849894	1.27337
40639	-0.00111693	0.948394
40678	-0.000888042	0.77246
40717	-0.00105971	0.660686
40756	-0.000849894	0.578192
40795	-0.000964338	0.520466
40834	-0.00105971	0.474108
40873	-0.00107878	0.440921
40912	-0.000983412	0.408786
40951	-0.00107878	0.383321
40990	-0.00109786	0.362263
41029	-0.000907116	0.345156
41068	-0.00111693	0.327653
41107	-0.00111693	0.311802
41146	-0.00102156	0.298813
41185	-0.00105971	0.287747
41224	-0.000868968	0.277743
41263	-0.00111693	0.26669
41302	-0.00117415	0.257837
41341	-0.000849894	0.249777
41380	-0.00102156	0.243436
41419	-0.00092619	0.235356
41458	-0.00115508	0.228506
41497	-0.00100249	0.222554
41536	-0.00123138	0.217941
41575	-0.00104063	0.212029
41614	-0.000907116	0.206391
41653	-0.000945264	0.201808
41692	-0.00104063	0.197901
41731	-0.000849894	0.193884
41770	-0.00102156	0.189045
41809	-0.00113601	0.18506
41848	-0.00109786	0.181377
41887	-0.00123138	0.178603
41926	-0.000983412	0.174283
41965	-0.00100249	0.17095
42004	-0.00102156	0.167961
42043	-0.00109786	0.165725
42082	-0.00107878	0.162381
42121	-0.000945264	0.159338
42160	-0.00092619	0.156782
42199	-0.00104063	0.154633
42238	-0.000888042	0.152481
42277	-0.00115508	0.149372
42316	-0.000888042	0.146937
42355	-0.00104063	0.144872
42394	-0.00102156	0.143201
42433	-0.000849894	0.140371
42472	-0.00102156	0.138578
42511	-0.00109786	0.136533
42550	-0.000888042	0.135371
42589	-0.00102156	0.132893
42628	-0.000964338	0.130754
42667	-0.00105971	0.128912
42706	-0.000945264	0.127565
42745	-0.00125045	0.126001
42784	-0.00109786	0.123909
42823	-0.000868968	0.122208
42862	-0.000907116	0.120787
42901	-0.00092619	0.119739
42940	-0.00111693	0.117723
42979	-0.000964338	0.116071
43018	-0.00109786	0.114851
43057	-0.000964338	0.114044
43096	-0.000983412	0.112158
43135	-0.00111693	0.110677
43174	-0.000964338	0.109329
43213	1.49944	33.2274
43252	1.49931	14.7377
43291	1.49925	11.033
43330	1.49942	9.0063
43369	1.49939	7.70702
43408	1.49929	6.73382
43447	1.4995	5.95259
43486	1.49937	5.32612
43525	1.49929	4.79513
43564	1.49954	4.38642
43603	1.49952	4.03868
43642	1.49939	3.73559
43681	1.49916	3.46699
43720	1.49921	3.23224
43759	1.49935	3.01718
43798	1.49931	2.83385
43837	1.49933	2.6898
43876	1.49921	2.56983
43915	1.49942	2.47334
43954	1.49919	2.3688
43993	1.49937	2.28738
44032	1.49954	2.21802
44071	1.49935	2.17451
44110	1.49935	2.1042
44149	1.49914	2.04836
44188	1.4994	2.00252
44227	1.49927	1.97486
44266	1.49937	1.92973
44305	1.49929	1.89021
44344	1.49946	1.85687
44383	1.49942	1.8299
44422	1.49946	1.80744
44461	1.49946	1.76783
44500	1.49935	1.74391
44539	1.49914	1.71935
44578	1.49914	1.70568
44617	1.49921	1.66891
44656	1.49923	1.65582
44695	1.49921	1.63824
44734	1.49918	1.63284
44773	1.49927	1.60014
44812	1.49929	1.58349
44851	1.49908	1.57513
44890	1.49942	1.5668
44929	1.4994	1.54994
44968	1.49912	1.52733
45007	-0.00117415	-13.0411
45046	-0.00092619	-0.532657
45085	-0.00104063	-0.0471054
45124	-0.000811746	0.0777452
45163	-0.00102156	0.13039
45202	-0.000888042	0.151314
45241	-0.00119323	0.159341
45280	-0.000907116	0.151795
45319	-0.000792671	0.139287
45358	-0.00105971	0.127942
45397	-0.00100249	0.117416
45436	-0.00119323	0.10792
45475	-0.00092619	0.0970387
45514	-0.000945264	0.0894768
45553	-0.00109786	0.0831704
45592	-0.00109786	0.0788466
45631	-0.000849894	0.0727402
45670	-0.00102156	0.06837
45709	-0.000964338	0.0649087
45748	-0.00092619	0.0628363
45787	-0.00115508	0.0598055
45826	-0.00111693	0.0566348
45865	-0.00102156	0.0548712
45904	-0.00109786	0.0534735
45943	-0.00115508	0.0520888
45982	-0.000983412	0.0499039
46021	-0.000964338	0.0482954
46060	-0.00115508	0.047143
46099	-0.00104063	0.0467053
46138	-0.00100249	0.044813
46177	-0.000983412	0.0437283
46216	-0.00115508	0.042844
46255	-0.00102156	0.042715
46294	-0.000868968	0.0416397
46333	-0.000945264	0.0405151
46372	-0.00109786	0.0398874
46411	-0.00109786	0.039696
46450	-0.000983412	0.0391622
46489	-0.00109786	0.038049
46528	-0.00105971	0.0374999
46567	-0.00102156	0.0372208
46606	-0.00092619	0.0371347
46645	-0.00111693	0.0362135
46684	-0.00092619	0.0356543
46723	-0.000849894	0.0352444
46762	-0.00104063	0.0352779
46801	-0.00123138	0.0346015
46840	-0.000849894	0.0339338
46879	-0.00109786	0.0333843
46918	-0.00092619	0.0336028
46957	-0.000983412	0.0332623
46996	-0.00107878	0.0324469
47035	-0.00104063	0.0322802
47074	-0.00083082	0.0321304
47113	-0.000907116	0.032312
47152	-0.000792671	0.0316013
47191	-0.00102156	0.0311245
47230	-0.00109786	0.0309286
47269	-0.000849894	0.0312424
47308	-0.00109786	0.0307285
47347	-0.00117415	0.0301237
47386	-0.000945264	0.0300742
47425	-0.00109786	0.0301129
47464	-0.000983412	0.0297966
47503	-0.00104063	0.0292166
47542	-0.00105971	0.0291434
47581	-0.000983412	0.0290013
47620	-0.00113601	0.0289281
47659	-0.000868968	0.0283024
47698	-0.00102156	0.0281945
47737	-0.00100249	0.0281667
47776	-0.00105971	0.0283382
47815	-0.00100249	0.028039
47854	-0.00107878	0.0275326
47893	-0.0012123	0.0274948
47932	-0.000849894	0.0275637
47971	-0.00115508	0.0273149
48010	-0.00105971	0.0268306
48049	-0.000964338	0.0265896
48088	-0.00107878	0.0263631
48127	-0.00109786	0.0267017
48166	-0.00102156	0.026227
48205	-0.000792671	0.0259164
48244	-0.00109786	0.0258463
48283	-0.00105971	0.0259366
48322	-0.00109786	0.0257316
48361	-0.00115508	0.025549
48400	-0.00105971	0.0255161
48439	-0.000945264	0.0256836
48478	-0.00102156	0.0253924
48517	-0.000945264	0.0250215
48556	-0.00115508	0.0250697
48595	-0.00105971	0.0248678
48634	-0.00100249	0.0249087
48673	-0.000983412	0.0246646
48712	-0.00111693	0.0243966
48751	-0.00092619	0.0241498
48790	-0.00092619	0.0243544
48829	-0.000983412	0.0240522
48868	-0.00100249	0.0237535
48907	-0.00107878	0.0237081
48946	-0.00105971	0.024102
48985	-0.00092619	0.023741
49024	-0.000849894	0.0235121
49063	-0.00105971	0.0233134
49102	-0.00126952	0.0233231
49141	-0.00104063	0.0234064
49180	-0.0012123	0.0231496
49219	-0.00102156	0.0230235
49258	-0.000983412	0.0229251
49297	-0.00109786	0.0231203
49336	-0.000792671	0.0228433
49375	-0.000983412	0.0226332
49414	-0.000907116	0.0226072
49453	-0.000849894	0.0226922
49492	-0.00092619	0.0224957
49531	-0.00107878	0.022084
49570	-0.00105971	0.0222294
49609	-0.00102156	0.0222653
49648	-0.00105971	0.0222693
49687	-0.00100249	0.0218176
49726	-0.00100249	0.0216906
49765	-0.00102156	0.0216657
49804	-0.000983412	0.0218428
49843	-0.00092619	0.0215119
49882	-0.00123138	0.0213948
49921	-0.00104063	0.0212216
49960	-0.00100249	0.0213966
49999	-0.00109786	0.0213083
50038	-0.00105971	0.0210444
50077	-0.00102156	0.0210595
50116	-0.000964338	0.021192
50155	-0.000983412	0.0210236
50194	-0.00107878	0.0207477
50233	-0.00104063	0.0206558
50272	-0.000945264	0.0206705
50311	-0.00104063	0.0207183
50350	-0.00092619	0.0206774
50389	-0.00102156	0.0203887
50428	-0.00105971	0.0202308
50467	-0.00105971	0.0205325
50506	-0.00115508	0.0202392
50545	-0.00105971	0.0200656
50584	-0.000945264	0.0201022
50623	-0.00102156	0.020094
50662	-0.00092619	0.0200728
50701	-0.000983412	0.0197103
50740	-0.00107878	0.0197302
50779	-0.00102156	0.0196203
50818	-0.00119323	0.0197431
50857	-0.00109786	0.0195997
50896	-0.00111693	0.0195204
50935	-0.000983412	0.019456
50974	-0.00092619	0.0195902
51013	-0.000849894	0.019521
51052	-0.000983412	0.0193124
51091	-0.00109786	0.0193531
51130	-0.000888042	0.0193711
51169	-0.000945264	0.0191548
51208	-0.000868968	0.0191137
51247	-0.00107878	0.0190246
51286	-0.000983412	0.0189985
51325	-0.00105971	0.0190696
51364	-0.00102156	0.0188782
51403	-0.000983412	0.0187401
51442	-0.00100249	0.0184728
51481	-0.00123138	0.0188951
51520	-0.00107878	0.0188306
51559	-0.00119323	0.0186134
51598	-0.00109786	0.018585
51637	-0.00100249	0.0186701
51676	-0.000964338	0.0187691
51715	-0.00107878	0.0185291
51754	-0.00119323	0.0185136
51793	-0.000945264	0.0185154
51832	-0.00109786	0.0184986
51871	-0.00113601	0.0183715
51910	-0.000983412	0.018254
51949	-0.00100249	0.0181964
51988	-0.00105971	0.0183825
52027	-0.00107878	0.0182273
52066	-0.00104063	0.0181073
52105	-0.00100249	0.018029
52144	-0.000945264	0.0180852
52183	-0.00107878	0.0180918
52222	-0.00104063	0.0178874
52261	-0.00100249	0.0178563
52300	-0.00104063	0.0178693
52339	-0.0012123	0.0178831
52378	-0.000983412	0.0177592
52417	-0.000964338	0.0177171
52456	-0.00102156	0.0177322
52495	-0.00109786	0.0178416
52534	-0.00102156	0.0176321
52573	-0.00113601	0.0174513
52612	-0.000945264	0.0174716
52651	-0.000907116	0.0176248
52690	-0.00092619	0.0174552
52729	-0.00102156	0.0174326
52768	-0.00113601	0.0173465
52807	-0.00107878	0.0173294
52846	-0.00105971	0.0173031
52885	-0.00109786	0.0172695
52924	-0.00113601	0.0172371
52963	-0.00104063	0.0171754
53002	-0.000907116	0.0173226
53041	-0.000907116	0.0172018
53080	-0.00113601	0.0169688
53119	-0.00100249	0.0169854
53158	-0.000983412	0.0170576
53197	-0.000888042	0.0169425
53236	-0.000983412	0.0167144
53275	-0.00104063	0.0167775
53314	-0.00102156	0.0168194
53353	-0.000868968	0.0167442
53392	-0.00109786	0.0166575
53431	-0.000983412	0.0165959
53470	-0.00092619	0.0165689
53509	-0.00100249	0.0166713
53548	-0.00100249	0.0165579
53587	-0.00115508	0.0163804
53626	-0.00102156	0.0163309
53665	-0.00105971	0.0164612
53704	-0.000907116	0.0163325
53743	-0.00105971	0.0161363
53782	-0.000964338	0.0161477
53821	-0.000983412	0.0161521
53860	-0.000983412	0.0161578
53899	-0.000983412	0.0161549
53938	-0.000868968	0.0159906
53977	-0.00092619	0.015841
54016	-2.00073	-44.9568
54055	-2.0009	-14.0078
54094	-2.00085	-8.81554
54133	-2.00081	-6.75979
54172	-2.0009	-5.6565
54211	-2.00092	-4.96435
54250	-2.00092	-4.48169
54289	-2.00086	-4.13871
54328	-2.00075	-3.88511
54367	-2.00098	-3.70522
54406	-2.00096	-3.52728
54445	-2.00081	-3.39478
54484	-2.00075	-3.28827
54523	-2.00094	-3.21884
54562	-2.00092	-3.1296
54601	-2.00094	-3.05674
54640	-2.00098	-3.00226
54679	-2.00075	-2.96304
54718	-2.00075	-2.91932
54757	-2.00073	-2.87025
54796	-2.00096	-2.83743
54835	-2.00088	-2.81002
54874	-2.00081	-2.7964
54913	-0.00105971	14.4767
54952	-0.000907116	2.11885
54991	-0.00102156	1.13142
55030	-0.00109786	0.787488
55069	-0.00102156	0.606633
55108	-0.00107878	0.498613
55147	-0.00104063	0.425651
55186	-0.000907116	0.376119
55225	-0.00111693	0.337716
55264	-0.00102156	0.306867
55303	-0.000983412	0.283036
55342	-0.000907116	0.263671
55381	-0.000964338	0.247746
55420	-0.000983412	0.232686
55459	-0.000983412	0.220492
55498	-0.000907116	0.209936
55537	-0.000945264	0.201173
55576	-0.00109786	0.19216
55615	-0.00100249	0.184305
55654	-0.0012123	0.177533
55693	-0.00102156	0.171916
55732	-0.00111693	0.166017
55771	-0.00092619	0.159982
55810	-0.00113601	0.155141
55849	-0.00117415	0.151037
55888	-0.00111693	0.147156
55927	-0.000983412	0.142508
55966	-0.00092619	0.138829
56005	-0.00100249	0.135333
56044	-0.00107878	0.132496
56083	-0.00104063	0.129019
56122	-0.00100249	0.125982
56161	-0.00105971	0.123172
56200	-0.00092619	0.120985
56239	-0.00083082	0.118402
56278	-0.00104063	0.11563
56317	-0.000907116	0.113335
56356	-0.00104063	0.111276
56395	-0.00100249	0.109402
56434	-0.00105971	0.106969
56473	-0.00105971	0.105139
56512	-0.000868968	0.103246
56551	-0.00083082	0.101822
56590	-0.00119323	0.099761
56629	-0.00100249	0.0980108
56668	-0.00107878	0.0964503
56707	-0.00104063	0.0951863
56746	-0.00100249	0.0936169
56785	-0.00113601	0.09184
56824	-0.00100249	0.0902956
56863	-0.00111693	0.0892155
56902	-0.00100249	0.0879837
56941	-0.000945264	0.0863545
56980	-0.00102156	0.085188
57019	-0.000945264	0.0838782
57058	-0.00109786	0.0829528
57097	-0.00102156	0.0816701
57136	-0.00105971	0.0804725
57175	-0.00109786	0.0794947
57214	-0.00104063	0.0786603
57253	-0.00100249	0.0775916
57292	-0.00123138	0.0764024
57331	-0.00104063	0.0754447
57370	-0.000945264	0.0747247
57409	-0.00109786	0.0738922
57448	-0.00100249	0.0727387
57487	-0.000888042	0.071918
57526	-0.000907116	0.0710386
57565	-0.000964338	0.0704346
57600	-0.000888042	0.0700191