File: Data_22_Experiment/CA_001_C01.txt
time/s	Ewe/V	<I>/mA
1	0.499197	28.0462
40	0.499082	2.01564
79	0.499388	1.33128
118	0.499426	1.06752
157	0.499197	0.925611
196	0.499121	0.836675
235	0.499273	0.775239
274	0.499445	0.729193
313	0.499349	0.692918
352	0.499254	0.663192
391	0.499197	0.638176
430	0.499159	0.616473
469	0.499254	0.597296
508	0.499178	0.579944
547	0.499254	0.564222
586	0.499216	0.549942
625	0.498968	0.5369
664	0.499082	0.524569
703	0.499197	0.51308
742	0.499063	0.502455
781	0.499159	0.492456
820	0.499197	0.481227
859	0.499311	0.472179
898	0.499292	0.463685
937	0.499273	0.455648
976	0.499235	0.448174
1015	0.499178	0.440606
1054	0.499216	0.433675
1093	0.49914	0.426965
1132	0.499292	0.420768
1171	0.49914	0.414386
1210	0.499159	0.408305
1249	0.499292	0.40263
1288	0.499178	0.397173
1327	0.499178	0.391871
1366	0.499197	0.386515
1405	0.499426	0.38153
1444	0.499121	0.376786
1483	0.49914	0.37235
1522	0.499178	0.367523
1561	0.499101	0.363206
1600	0.499368	0.358994
1639	0.499292	0.355178
1678	0.499273	0.35104
1717	0.499197	0.347067
1756	0.499063	0.343377
1795	0.499063	0.339855
1833.95	-0.00107878	-0.126577
1872.95	-0.000868968	-0.00670963
1911.95	-0.00104063	0.027566
1950.95	-0.000849894	0.0415233
1989.95	-0.00105971	0.0488465
2028.95	-0.00102156	0.0527011
2067.95	-0.000945264	0.0545516
2106.95	-0.000983412	0.0553779
2145.95	-0.000983412	0.0556941
2184.95	-0.00109786	0.0554678
2223.95	-0.000964338	0.0549982
2262.95	-0.00102156	0.0545226
2301.95	-0.00100249	0.0539829
2340.95	-0.00092619	0.0534442
2379.95	-0.00102156	0.0526807
2418.95	-0.000964338	0.0519918
2457.95	-0.00105971	0.0513501
2496.95	-0.000964338	0.0507969
2535.95	-0.00102156	0.0499972
2574.95	-0.00100249	0.0494505
2613.95	-0.000964338	0.0488063
2652.95	-0.00102156	0.0482076
2691.95	-0.00107878	0.0475861
2730.95	-0.0012123	0.0469141
2769.95	-0.00107878	0.0455952
2808.95	-0.00105971	0.0443472
2847.95	-0.00109786	0.0433372
2886.95	-0.00100249	0.0424063
2925.95	-0.000945264	0.0416923
2964.95	-0.00113601	0.0410145
3003.95	-0.000983412	0.0405585
3042.95	-0.000983412	0.0399641
3081.95	-0.00092619	0.0395068
3120.95	-0.00105971	0.0390387
3159.95	-0.00104063	0.0386384
3198.95	-0.00104063	0.0382286
3237.95	-0.000945264	0.037798
3276.95	-0.00111693	0.0374503
3315.95	-0.00111693	0.0371539
3354.95	-0.00117415	0.0367918
3393.95	-0.0012123	0.036418
3432.95	-0.00109786	0.0360979
3471.95	-0.00111693	0.0358065
3510.95	-0.000945264	0.0355606
3549.95	-0.000983412	0.0352347
3588.95	-0.00100249	0.0349381
3627.95	-0.00092619	0.034662
3666.95	-0.000792671	0.034434
3705.95	-0.00102156	0.0341502
3744.95	-0.00102156	0.0338372
3783.95	-0.00107878	0.0336951
3822.95	-0.000983412	0.0335189
3861.95	-0.000945264	0.0332258
3900.95	-0.00113601	0.0329817
3939.95	-0.00102156	0.032778
3978.95	-0.00100249	0.0326088
4017.95	-0.000868968	0.0324018
4056.95	-0.00105971	0.0321586
4095.95	-0.00102156	0.0319908
4134.95	-0.00115508	0.0317342
4173.95	-0.00107878	0.0315336
4212.95	-0.00100249	0.0313515
4251.95	-0.00105971	0.0311372
4290.95	-0.000907116	0.0309747
4329.95	-0.00113601	0.0307941
4368.95	-0.00115508	0.0306569
4407.95	-0.00104063	0.0304451
4446.95	-0.000983412	0.0302342
4485.95	-0.00109786	0.0300941
4524.95	-0.000945264	0.029974
4563.95	-0.00109786	0.0297477
4602.95	-0.000907116	0.0296083
4641.95	-0.00092619	0.0294596
4680.95	-0.00104063	0.0293145
4719.95	-0.00100249	0.0291558
4758.95	-0.00102156	0.0289344
4797.95	-0.000945264	0.0287675
4836.95	-0.000945264	0.0286476
4875.95	-0.00102156	0.0285044
4914.95	-0.00119323	0.0282713
4953.95	-0.00105971	0.0281852
4992.95	-0.00109786	0.0280505
5031.95	-0.00092619	0.0278773
5070.95	-0.00115508	0.0277208
5109.95	-0.00100249	0.0275928
5148.95	-0.00115508	0.0274405
5187.95	-0.000983412	0.0273132
5226.95	-0.00104063	0.027136
5265.95	-0.00100249	0.0270273
5304.95	-0.00100249	0.0268748
5343.95	-0.000964338	0.0267676
5382.95	-0.000868968	0.0266366
5421.95	-0.00105971	0.0265363
5460.95	-0.00100249	0.0263919
5499.95	-0.00105971	0.0262638
5538.95	-0.00102156	0.0261375
5577.95	-0.00100249	0.0260011
5616.95	-0.000945264	0.0258949
5655.95	-0.00115508	0.0258064
5694.95	-0.000849894	0.0257377
5733.95	-0.00105971	0.0255818
5772.95	-0.000983412	0.025495
5811.95	-0.00117415	0.0255287
5850.95	-0.00102156	0.0252969
5889.95	-0.00113601	0.0251553
5928.95	-0.00107878	0.0250746
5967.95	-0.00104063	0.0249138
6006.95	-0.00102156	0.024832
6045.95	-0.00105971	0.0247673
6084.95	-0.000754523	0.02462
6123.95	-0.00107878	0.0244948
6162.95	-0.000983412	0.0243982
6201.95	-0.00104063	0.0243836
6240.95	-0.000945264	0.0242297
6279.95	-0.000945264	0.0240702
6318.95	-0.000811746	0.0239667
6357.95	-0.00107878	0.0238903
6396.95	-0.000964338	0.0237833
6435.95	-0.00109786	0.0236476
6474.95	-0.00107878	0.0235956
6513.95	-0.00102156	0.0234852
6552.95	-0.000964338	0.0234029
6591.95	-0.0012123	0.0232559
6630.95	-0.00107878	0.0231232
6669.95	-0.00092619	0.0230777
6708.95	-0.00092619	0.022994
6747.95	-0.00102156	0.0228967
6786.95	-0.00104063	0.0227887
6825.95	-0.00102156	0.0227286
6864.95	-0.00105971	0.0226199
6903.95	-0.00104063	0.022566
6942.95	-0.00083082	0.0224493
6981.95	-0.00109786	0.0225011
7020.95	-0.00117415	0.0223403
7059.95	-0.00100249	0.022291
7098.95	-0.00092619	0.0220986
7137.95	-0.00105971	0.0220406
7176.95	-0.000983412	0.0219679
7215.95	-0.00111693	0.021912
7254.95	-0.00115508	0.0218233
7293.95	-0.00109786	0.021735
7332.95	-0.00123138	0.0216267
7371.95	-0.00100249	0.021573
7410.95	-0.00107878	0.0215356
7449.95	-0.00102156	0.0214166
7488.95	-0.000888042	0.0213685
7527.95	-0.000945264	0.02127
7566.95	-0.00109786	0.0211506
7605.95	-0.00113601	0.0210941
7644.95	-0.00105971	0.0210197
7683.95	-0.00111693	0.0209985
7722.95	-0.00104063	0.0208729
7761.95	-0.00113601	0.0208405
7800.95	-0.00107878	0.0207183
7839.95	-0.00105971	0.0206734
7878.95	-0.00100249	0.0205824
7917.95	-0.000754523	0.0205572
7956.95	-0.0012886	0.0204877
7995.95	-0.00104063	0.0203917
8034.95	-0.00111693	0.0203747
8073.95	-0.00092619	0.0202656
8112.95	-0.00102156	0.0201172
8151.95	-0.00105971	0.0201236
8190.95	-0.000945264	0.0200633
8229.95	-0.00107878	0.0199761
8268.95	-0.00104063	0.0199251
8307.95	-0.00113601	0.0198293
8346.95	-0.000945264	0.0198159
8385.95	-0.000964338	0.0197033
8424.95	-0.000849894	0.0197144
8463.95	-0.00113601	0.019595
8502.95	-0.00092619	0.0194905
8541.95	-0.000888042	0.0194727
8580.95	-0.000849894	0.0193779
8619.95	-0.000907116	0.0193147
8658.95	-0.00100249	0.0192814
8697.95	-0.00105971	0.0192224
8736.95	-0.000888042	0.0191926
8775.95	-0.000945264	0.019136
8814.95	-0.000964338	0.0190607
8853.95	-0.000983412	0.0190052
8892.95	-0.00115508	0.0188903
8931.95	-0.00111693	0.0189379
8970.95	-0.00102156	0.018835
9009.95	-0.00109786	0.0187322
9048.95	-0.00109786	0.0187119
9087.95	-0.00102156	0.0187188
9126.95	-0.00113601	0.0186455
9165.95	-0.00109786	0.018581
9204.95	-0.00104063	0.0184635
9243.95	-0.000945264	0.0184009
9282.95	-0.00107878	0.018423
9321.95	-0.00119323	0.0183535
9360.95	-0.00104063	0.0182934
9399.95	-0.00107878	0.0182809
9438.95	-0.00100249	0.0182464
9477.95	-0.00100249	0.0181437
9516.95	-0.00104063	0.0180577
9555.95	-0.00113601	0.0180675
9594.95	-0.00117415	0.0180126
9633.95	-0.00117415	0.0179562
9672.95	-0.00117415	0.0179277
9711.95	-0.000964338	0.0179169
9750.95	-0.00092619	0.0178505
9789.95	-0.00113601	0.017799
9828.95	-0.000849894	0.0177228
9867.95	-0.00123138	0.017731
9906.95	-0.00109786	0.0175901
9945.95	-0.000983412	0.017624
9984.95	-0.000964338	0.0175648
10024	-0.000907116	0.01753
10063	-0.00113601	0.0174818
10102	-0.00125045	0.0174231
10141	-0.00105971	0.0173552
10180	-0.00113601	0.0173552
10219	-0.00136489	0.0172832
10258	-0.000773597	0.0172491
10297	-0.000868968	0.0171865
10336	-0.00109786	0.0171125
10375	-0.000983412	0.0171606
10414	-0.000945264	0.0170706
10453	-0.00092619	0.017074
10492	-0.000849894	0.01695
10531	-0.00107878	0.0169164
10570	-0.000964338	0.0168966
10609	-0.00102156	0.0169364
10648	-0.00104063	0.0168485
10687	-0.00111693	0.0167639
10726	-0.00092619	0.0167482
10765	-0.00092619	0.01672
10804	-2.00083	-93.0275
10843	-2.00098	-17.5545
10882	-2.0006	-11.2315
10921	-2.00107	-10.0426
10960	-2.00096	-9.60142
10999	-2.00071	-9.36267
11038	-2.00092	-9.21283
11077	-2.00077	-9.12161
11116	-2.00086	-9.03431
11155	-2.00069	-8.9361
11194	-2.00077	-8.88081
11233	-2.00086	-8.83008
11272	-2.0009	-8.82258
11311	-2.00094	-8.79198
11350	-2.00088	-8.77077
11389	-2.00069	-8.75911
11428	-2.00085	-8.7935
11467	-2.00058	-8.75614
11506	-2.00086	-8.7752
11545	-2.00094	-8.7612
11584	-2.00104	-8.78028
11623	-2.00102	-8.79535
11662	-2.00088	-8.82308
11701	-0.000983412	199.723
11740	-0.00107878	4.00147
11779	-0.00092619	1.90238
11818	-0.000849894	1.26966
11857	-0.00115508	0.981998
11896	-0.00107878	0.822713
11935	-0.00123138	0.725244
11974	-0.000849894	0.655168
12013	-0.000907116	0.60502
12052	-0.000945264	0.567152
12091	-0.00100249	0.537858
12130	-0.000945264	0.512495
12169	-0.00113601	0.489986
12208	-0.00117415	0.469829
12247	-0.00107878	0.453439
12286	-0.000849894	0.439733
12325	-0.000964338	0.425418
12364	-0.00115508	0.413282
12403	-0.00102156	0.401956
12442	-0.00104063	0.392607
12481	-0.00104063	0.382291
12520	-0.00109786	0.373163
12559	-0.00119323	0.364991
12598	-0.0012123	0.357583
12637	-0.000811746	0.349981
12676	-0.00102156	0.342263
12715	-0.00105971	0.335556
12754	-0.00126952	0.329224
12793	-0.00115508	0.323599
12832	-0.000983412	0.317216
12871	-0.00126952	0.311413
12910	-0.00117415	0.306038
12949	-0.000907116	0.301363
12988	-0.0012886	0.295992
13027	-0.00107878	0.291013
13066	-0.00130767	0.286436
13105	-0.000945264	0.282279
13144	-0.00102156	0.277865
13183	-0.00113601	0.273331
13222	-0.00113601	0.269138
13261	-0.000868968	0.26528
13300	-0.00105971	0.261794
13339	-0.000983412	0.257647
13378	-0.00107878	0.253985
13417	-0.00092619	0.250521
13456	-0.000945264	0.247535
13495	-0.00104063	0.243984
13534	-0.00113601	0.240328
13573	-0.00115508	0.237373
13612	-0.00100249	0.234514
13651	-0.00104063	0.231603
13690	-0.000983412	0.228331
13729	-0.00113601	0.225518
13768	-0.00100249	0.222731
13807	-0.00126952	0.220194
13846	-0.00113601	0.217237
13885	-0.00107878	0.214626
13924	-0.000868968	0.212044
13963	-0.000773597	0.209797
14002	-0.00113601	0.207195
14041	-0.00104063	0.204832
14080	-0.000888042	0.202407
14119	-0.00105971	0.200304
14158	-0.00102156	0.198058
14197	-0.00111693	0.195637
14236	-0.00109786	0.193407
14275	-0.00107878	0.191451
14314	-0.00117415	0.189543
14353	-0.00109786	0.187251
14392	-0.00104063	0.185255
14431	0.499159	2.36055
14470	0.499178	1.50981
14509	0.499121	1.21241
14548	0.499273	1.06239
14587	0.499063	0.969069
14626	0.499349	0.902082
14665	0.499235	0.84917
14704	0.499063	0.805853
14743	0.499235	0.769009
14782	0.499235	0.736774
14821	0.499082	0.707806
14860	0.499349	0.681507
14899	0.499044	0.657901
14938	0.499273	0.636213
14977	0.49914	0.616395
15016	0.499101	0.597576
15055	0.499159	0.580382
15094	0.49914	0.56448
15133	0.499101	0.54986
15172	0.499235	0.535611
15211	0.499254	0.522446
15250	0.499445	0.510039
15289	0.499063	0.498585
15328	0.499216	0.487587
15367	0.49933	0.475203
15406	0.49914	0.465447
15445	0.499235	0.456184
15484	0.499235	0.447582
15523	0.499121	0.438883
15562	0.499121	0.430911
15601	0.499216	0.423356
15640	0.499273	0.416452
15679	0.499101	0.409379
15718	0.499368	0.402694
15757	0.499197	0.396474
15796	0.499178	0.390699
15835	0.499273	0.384936
15874	0.499063	0.3792
15913	0.499101	0.373921
15952	0.499159	0.368995
15991	0.499159	0.364345
16030	0.499044	0.359319
16069	0.499121	0.354773
16108	0.499121	0.350401
16147	0.499159	0.346507
16186	0.499159	0.342115
16225	-0.00115508	-0.298661
16264	-0.00092619	-0.0330381
16303	-0.00111693	0.0182851
16342	-0.00111693	0.0367217
16381	-0.00105971	0.0446773
16420	-0.000964338	0.0485108
16459	-0.00102156	0.0504289
16498	-0.00104063	0.051424
16537	-0.00092619	0.0516317
16576	-0.00102156	0.0516589
16615	-0.000983412	0.0513884
16654	-0.000907116	0.0511493
16693	-0.00104063	0.0506783
16732	-0.00083082	0.0502593
16771	-0.000849894	0.0497567
16810	-0.000945264	0.0493339
16849	-0.00100249	0.0488789
16888	-0.000983412	0.0483066
16927	-0.00100249	0.0478215
16966	-0.00105971	0.0473891
17005	-0.00100249	0.0470157
17044	-0.00119323	0.0464574
17083	-0.00092619	0.0460104
17122	-0.000888042	0.0455744
17161	-0.00113601	0.0452298
17200	-0.00104063	0.0447307
17239	-0.00104063	0.0443957
17278	-0.00104063	0.0439392
17317	-0.00083082	0.0436105
17356	-0.00102156	0.0432621
17395	-0.00102156	0.0428095
17434	-0.000945264	0.0424898
17473	-0.0012886	0.042105
17512	-0.000983412	0.0418355
17551	-0.00117415	0.0413699
17590	-0.00100249	0.0410362
17629	-0.00111693	0.0407223
17668	-0.00119323	0.0404924
17707	-0.00115508	0.0401721
17746	-0.00117415	0.0398266
17785	-0.00104063	0.0395781
17824	-0.00107878	0.0392948
17863	-0.00092619	0.0390186
17902	-0.00117415	0.0386753
17941	-0.00113601	0.0384382
17980	-0.00119323	0.0381561
18019	-0.00104063	0.0379188
18058	-0.00083082	0.0375954
18097	-0.00107878	0.0373524
18136	-0.00107878	0.0371047
18175	-0.00109786	0.036956
18214	-0.00104063	0.0366203
18253	-0.00111693	0.0364
18292	-0.00119323	0.0361488
18331	-0.000811746	0.0359491
18370	-0.00092619	0.0358263
18409	-0.00115508	0.0355025
18448	-0.00111693	0.0352969
18487	-0.0012886	0.0350896
18526	-0.00111693	0.0349297
18565	-0.00109786	0.0346543
18604	-0.000907116	0.0343772
18643	-0.000983412	0.0342226
18682	-0.00107878	0.0340422
18721	-0.00100249	0.0338154
18760	-0.00104063	0.0336111
18799	-0.00092619	0.0334677
18838	-0.000907116	0.0333382
18877	-0.00102156	0.0334418
18916	-0.00083082	0.0333263
18955	-0.00092619	0.0332991
18994	-0.00092619	0.0330585
19033	-0.00092619	0.0330213
19072	-0.00105971	0.0328522
19111	-0.00100249	0.0326756
19150	-0.00111693	0.0325443
19189	-0.000888042	0.0324202
19228	-0.000983412	0.0321856
19267	-0.000945264	0.0320217
19306	-0.00115508	0.0319229
19345	-0.00126952	0.0318241
19384	-0.00126952	0.0316405
19423	-0.00113601	0.0314808
19462	-0.000868968	0.031321
19501	-0.000888042	0.0311797
19540	-0.00102156	0.0310514
19579	-0.00100249	0.0308788
19618	-0.000964338	0.0307393
19657	-0.00105971	0.0306041
19696	-0.000945264	0.0304642
19735	-0.00125045	0.0303382
19774	-0.00105971	0.030126
19813	-0.00102156	0.0300217
19852	-0.000964338	0.0299115
19891	-0.00102156	0.0298402
19930	-0.000907116	0.0296333
19969	-0.0012123	0.0294578
20008	-0.00107878	0.0293504
20047	-0.00115508	0.0292376
20086	-0.00100249	0.0289769
20125	-0.00111693	0.0288712
20164	-0.00119323	0.0287244
20203	-0.00119323	0.0286139
20242	-0.000888042	0.0284639
20281	-0.0012886	0.028384
20320	-0.00113601	0.0282882
20359	-0.00107878	0.0281852
20398	-0.00119323	0.0281212
20437	-0.00104063	0.0279661
20476	-0.00100249	0.0278558
20515	-0.00113601	0.0277156
20554	-0.00100249	0.0276696
20593	-0.000983412	0.0275035
20632	-0.00100249	0.0274734
20671	-0.000983412	0.0273107
20710	-0.00111693	0.027204
20749	-0.00102156	0.0271197
20788	-0.000907116	0.0270365
20827	-0.000983412	0.0268971
20866	-0.000907116	0.0268144
20905	-0.00107878	0.0267314
20944	-0.00119323	0.026615
20983	-0.000868968	0.0263709
21022	-0.000964338	0.0263891
21061	-0.00104063	0.0263359
21100	-0.00117415	0.0261234
21139	-0.00117415	0.0260107
21178	-0.00111693	0.0258927
21217	-0.00119323	0.0258609
21256	-0.00100249	0.0257751
21295	-0.000888042	0.0256437
21334	-0.00100249	0.0254943
21373	-0.000907116	0.0254373
21412	-0.00092619	0.0252806
21451	-0.00113601	0.0251912
21490	-0.00109786	0.0251242
21529	-0.00107878	0.0250325
21568	-0.00125045	0.0249911
21607	-0.00107878	0.0249256
21646	-0.000907116	0.0247234
21685	-0.00125045	0.0246735
21724	-0.00092619	0.0246498
21763	-0.00107878	0.0245116
21802	-0.00102156	0.0244765
21841	-0.00105971	0.0243633
21880	-0.00105971	0.0242618
21919	-0.000983412	0.0242209
21958	-0.00092619	0.0241152
21997	-0.00104063	0.0240847
22036	-0.000888042	0.0239909
22075	-0.00104063	0.0238983
22114	-0.00105971	0.0237355
22153	-0.00107878	0.0236679
22192	-0.00123138	0.023569
22231	-0.00111693	0.0235093
22270	-0.0012886	0.0234214
22309	-0.00111693	0.0233563
22348	-0.00107878	0.0232871
22387	-0.00111693	0.0232144
22426	-0.00102156	0.0231657
22465	-0.00109786	0.0230683
22504	-0.00117415	0.0229609
22543	-0.00105971	0.0228521
22582	-0.00111693	0.0229123
22621	-0.00109786	0.0227582
22660	-0.00102156	0.0226573
22699	-0.00123138	0.0227573
22738	-0.00105971	0.0226204
22777	-0.00107878	0.0225147
22816	-0.00104063	0.0224779
22855	-0.00113601	0.0223813
22894	-0.00104063	0.0222945
22933	-0.00107878	0.0222426
22972	-0.00107878	0.0221383
23011	-0.00107878	0.022128
23050	-0.00102156	0.0220497
23089	-0.00107878	0.0220458
23128	-0.000945264	0.0219223
23167	-0.00105971	0.0218476
23206	-0.00117415	0.0218182
23245	-0.00104063	0.0217931
23284	-0.00117415	0.0216967
23323	-0.00102156	0.0216383
23362	-0.000945264	0.0215473
23401	-0.000964338	0.0214973
23440	-0.00107878	0.0214652
23479	-0.000849894	0.0213397
23518	-0.00113601	0.0212991
23557	-0.00107878	0.0212277
23596	-0.00111693	0.0212104
23635	-0.00104063	0.0211191
23674	-0.00105971	0.0209832
23713	-0.000964338	0.0210045
23752	-0.000907116	0.021027
23791	-0.00111693	0.0208805
23830	-0.000907116	0.0208793
23869	-0.000964338	0.0207974
23908	-0.00100249	0.0207801
23947	-0.00092619	0.0207012
23986	-0.00105971	0.0205655
24025	-0.00119323	0.0206186
24064	-0.00092619	0.020505
24103	-0.00119323	0.0204924
24142	-0.000945264	0.0204208
24181	-0.000945264	0.0203804
24220	-0.00107878	0.0203389
24259	-0.00115508	0.0202919
24298	-0.000945264	0.0202369
24337	-0.00113601	0.0201965
24376	-0.000849894	0.0201307
24415	-0.00102156	0.0200108
24454	-0.000983412	0.0200506
24493	-0.00109786	0.0198967
24532	-0.00111693	0.0199226
24571	-0.000945264	0.0198534
24610	-0.00104063	0.0198517
24649	-0.00104063	0.0197824
24688	-0.00102156	0.0196777
24727	-0.00130767	0.0196761
24766	-0.00113601	0.0196325
24805	-0.00100249	0.0195445
24844	-0.00109786	0.0194885
24883	-0.00111693	0.0194625
24922	-0.00117415	0.0194387
24961	-0.00115508	0.0194002
25000	-0.00117415	0.0193083
25039	-0.00107878	0.0192801
25078	-0.00104063	0.0191928
25117	-0.000888042	0.0192129
25156	-0.00109786	0.0191232
25195	-0.000945264	0.0190369
25234	-2.00117	-20.5856
25273	-2.00086	-10.8948
25312	-2.00083	-9.13885
25351	-2.00085	-8.64489
25390	-2.00092	-8.43239
25429	-2.00092	-8.35135
25468	-2.00075	-8.26642
25507	-2.00102	-8.21535
25546	-2.00081	-8.18199
25585	-2.00092	-8.17616
25624	-2.00085	-8.17564
25663	-2.00085	-8.16005
25702	-2.00094	-8.1672
25741	-2.001	-8.18209
25780	-2.0009	-8.20894
25819	-2.00083	-8.21342
25858	-2.00086	-8.20674
25897	-2.00094	-8.2346
25936	-2.00079	-8.26399
25975	-2.00092	-8.29645
26014	-2.00079	-8.32289
26053	-2.00083	-8.31258
26092	-2.0009	-8.36717
26131	-0.00092619	5.39244
26170	-0.000811746	2.1226
26209	-0.000945264	1.33324
26248	-0.00117415	0.99424
26287	-0.00113601	0.810706
26326	-0.000888042	0.694922
26365	-0.000983412	0.6189
26404	-0.00109786	0.564195
26443	-0.00109786	0.524238
26482	-0.000964338	0.490127
26521	-0.00126952	0.461449
26560	-0.000888042	0.439077
26599	-0.00105971	0.420932
26638	-0.00102156	0.403906
26677	-0.00125045	0.38869
26716	-0.00113601	0.375482
26755	-0.00105971	0.364083
26794	-0.00104063	0.353739
26833	-0.00105971	0.342828
26872	-0.000964338	0.333618
26911	-0.00092619	0.325082
26950	-0.000983412	0.317855
26989	-0.0012886	0.309661
27028	-0.00111693	0.302383
27067	-0.000983412	0.295821
27106	-0.00083082	0.290216
27145	-0.00100249	0.283921
27184	-0.000964338	0.277916
27223	-0.00107878	0.272537
27262	-0.00115508	0.267718
27301	-0.00105971	0.262827
27340	-0.000983412	0.257628
27379	-0.00092619	0.253326
27418	-0.000983412	0.249058
27457	-0.00102156	0.245247
27496	-0.000983412	0.24092
27535	-0.00102156	0.236851
27574	-0.00107878	0.233375
27613	-0.00117415	0.230176
27652	-0.00107878	0.226525
27691	-0.00115508	0.223052
27730	-0.000964338	0.219944
27769	-0.000983412	0.216991
27808	-0.00092619	0.214202
27847	-0.000964338	0.211017
27886	-0.00111693	0.208234
27925	-0.00100249	0.205538
27964	-0.000888042	0.203317
28003	-0.00100249	0.200408
28042	-0.00111693	0.197934
28081	-0.00109786	0.195516
28120	-0.000983412	0.193401
28159	-0.00102156	0.191141
28198	-0.00100249	0.188661
28237	-0.00100249	0.186467
28276	-0.00104063	0.184385
28315	-0.00115508	0.182366
28354	-0.00100249	0.180096
28393	-0.00107878	0.178139
28432	-0.000964338	0.176329
28471	-0.000945264	0.174579
28510	-0.00115508	0.172503
28549	-0.00115508	0.170703
28588	-0.000792671	0.16884
28627	-0.00092619	0.16727
28666	-0.000945264	0.165466
28705	-0.000868968	0.163555
28744	-0.000964338	0.162072
28783	-0.00119323	0.160528
28822	0.499216	3.09813
28861	0.498911	1.7264
28900	0.499292	1.30286
28939	0.499388	1.09934
28978	0.499445	0.979702
29017	0.499254	0.898097
29056	0.499235	0.83673
29095	0.499178	0.786794
29134	0.499159	0.744832
29173	0.498853	0.707805
29212	0.499292	0.675615
29251	0.499235	0.647197
29290	0.49914	0.621944
29329	0.49914	0.59833
29368	0.499101	0.576964
29407	0.499178	0.557362
29446	0.49914	0.539627
29485	0.499216	0.523007
29524	0.499197	0.50723
29563	0.499121	0.492994
29602	0.499311	0.477822
29641	0.49893	0.465841
29680	0.499006	0.453976
29719	0.499311	0.443102
29758	0.499311	0.432974
29797	0.499121	0.423712
29836	0.499388	0.414564
29875	0.499159	0.405871
29914	0.49914	0.397913
29953	0.499216	0.390402
29992	0.499368	0.383373
30031	0.499311	0.376216
30070	0.499197	0.369733
30109	0.499216	0.363578
30148	0.499216	0.35791
30187	0.499044	0.352095
30226	0.499159	0.346766
30265	0.499235	0.341641
30304	0.499407	0.337128
30343	0.499349	0.332272
30382	0.499445	0.32743
30421	0.499159	0.32303
30460	0.499388	0.318942
30499	0.499159	0.315043
30538	0.499388	0.310765
30577	0.499388	0.307107
30616	-0.000888042	-0.567518
30655	-0.00109786	-0.0748861
30694	-0.000811746	-0.00244843
30733	-0.000907116	0.0222607
30772	-0.000792671	0.0332175
30811	-0.00100249	0.0388286
30850	-0.00083082	0.0417795
30889	-0.00111693	0.0432721
30928	-0.000811746	0.0441709
30967	-0.000983412	0.0445693
31006	-0.000792671	0.0447398
31045	-0.00102156	0.0445721
31084	-0.00105971	0.0444171
31123	-0.00125045	0.0441223
31162	-0.000964338	0.04399
31201	-0.00117415	0.043571
31240	-0.00119323	0.0431882
31279	-0.000983412	0.0428798
31318	-0.00107878	0.0425373
31357	-0.00117415	0.0421267
31396	-0.00100249	0.0417275
31435	-0.00105971	0.0413733
31474	-0.00123138	0.0410002
31513	-0.00100249	0.0407663
31552	-0.00100249	0.0403288
31591	-0.00115508	0.0400166
31630	-0.000983412	0.0396492
31669	-0.000907116	0.0394188
31708	-0.00100249	0.0390121
31747	-0.00092619	0.0386789
31786	-0.000964338	0.0383743
31825	-0.000945264	0.038096
31864	-0.00109786	0.0378504
31903	-0.000888042	0.0374499
31942	-0.00102156	0.0371509
31981	-0.00102156	0.0369046
32020	-0.00111693	0.0367607
32059	-0.00115508	0.0363884
32098	-0.00113601	0.0360604
32137	-0.00092619	0.0358159
32176	-0.000945264	0.0356454
32215	-0.00107878	0.035273
32254	-0.00102156	0.0350278
32293	-0.0012123	0.0348227
32332	-0.000964338	0.034587
32371	-0.00113601	0.0344116
32410	-0.00105971	0.0340948
32449	-0.00115508	0.0338111
32488	-0.00115508	0.0336432
32527	-0.00119323	0.0335074
32566	-0.00113601	0.0332454
32605	-0.00104063	0.0329516
32644	-0.00105971	0.0328446
32683	-0.00105971	0.0326997
32722	-0.00104063	0.0324993
32761	-0.00104063	0.0322564
32800	-0.00117415	0.0319632
32839	-0.000964338	0.0318963
32878	-0.000888042	0.0317203
32917	-0.00102156	0.0313976
32956	-0.000697301	0.0313028
32995	-0.00104063	0.0310894
33034	-0.00109786	0.0310232
33073	-0.00115508	0.0307776
33112	-0.00105971	0.0306544
33151	-0.000983412	0.0304157
33190	-0.00105971	0.0302924
33229	-0.00115508	0.030142
33268	-0.00115508	0.029935
33307	-0.000811746	0.0297765
33346	-0.00109786	0.0296526
33385	-0.000888042	0.0295189
33424	-0.00092619	0.0293002
33463	-0.00102156	0.0291568
33502	-0.00119323	0.0290323
33541	-0.000888042	0.0289514
33580	-0.00113601	0.0287401
33619	-0.00115508	0.0285727
33658	-0.00104063	0.0284441
33697	-0.000907116	0.0283336
33736	-0.00119323	0.0282392
33775	-0.00115508	0.0280096
33814	-0.00104063	0.0279331
33853	-0.00115508	0.0277772
33892	-0.00105971	0.0276896
33931	-0.00113601	0.0275026
33970	-0.00119323	0.027362
34009	-0.000907116	0.0272721
34048	-0.000888042	0.0272091
34087	-0.000964338	0.0271396
34126	-0.00115508	0.0269232
34165	-0.000907116	0.0268518
34204	-0.00111693	0.0267677
34243	-0.00134582	0.0266262
34282	-0.00102156	0.0265062
34321	-0.00107878	0.0263621
34360	-0.00130767	0.0262637
34399	-0.000964338	0.0261872
34438	-0.00105971	0.0260814
34477	-0.000983412	0.0258476
34516	-0.000964338	0.025823
34555	-0.000983412	0.0257189
34594	-0.00113601	0.0256083
34633	-0.00109786	0.0255115
34672	-0.00105971	0.0254044
34711	-0.00132675	0.0252966
34750	-0.00115508	0.0251976
34789	-0.00113601	0.025119
34828	-0.00123138	0.0249156
34867	-0.00119323	0.0249032
34906	-0.00119323	0.0248066
34945	-0.00117415	0.024704
34984	-0.00111693	0.0246351
35023	-0.0012886	0.0245266
35062	-0.00105971	0.0244665
35101	-0.000964338	0.024305
35140	-0.00109786	0.0242184
35179	-0.00100249	0.0241102
35218	-0.00117415	0.0240953
35257	-0.000983412	0.0240005
35296	-0.00105971	0.0238712
35335	-0.00109786	0.0238332
35374	-0.00105971	0.0237176
35413	-0.00117415	0.0236262
35452	-0.000792671	0.0235052
35491	-0.00111693	0.0234557
35530	-0.000983412	0.023395
35569	-0.0012886	0.0233483
35608	-0.00100249	0.0231916
35647	-0.00102156	0.0231069
35686	-0.00102156	0.0229902
35725	-0.000983412	0.0230304
35764	-0.00111693	0.0229047
35803	-0.00113601	0.022788
35842	-0.00105971	0.0227218
35881	-0.00092619	0.0225819
35920	-0.000964338	0.0225901
35959	-0.000907116	0.0224887
35998	-0.00113601	0.0224473
36037	-0.00111693	0.022396
36076	-0.00107878	0.0222819
36115	-0.0012123	0.0222135
36154	-0.00104063	0.022124
36193	-0.00102156	0.0220804
36232	-0.00113601	0.0220382
36271	-0.000964338	0.0219316
36310	-0.000983412	0.0218301
36349	-0.000983412	0.0218118
36388	-0.00104063	0.0217564
36427	-0.00100249	0.0217341
36466	-0.000983412	0.0216234
36505	-0.000907116	0.0215313
36544	-0.00117415	0.0213443
36583	-0.00100249	0.0214207
36622	-0.00107878	0.0213404
36661	-0.00102156	0.0212635
36700	-0.00092619	0.0212053
36739	-0.000964338	0.0212349
36778	-0.00119323	0.021072
36817	-0.000888042	0.0210432
36856	-0.00109786	0.0209762
36895	-0.00100249	0.0209655
36934	-0.00105971	0.0209152
36973	-0.00100249	0.0208248
37012	-0.00107878	0.0207774
37051	-0.00111693	0.020711
37090	-0.00115508	0.0207613
37129	-0.00105971	0.020622
37168	-0.000983412	0.0205463
37207	-0.000964338	0.0204804
37246	-0.00105971	0.0205077
37285	-0.00105971	0.0203703
37324	-0.00092619	0.0203519
37363	-0.00102156	0.0202998
37402	-0.00102156	0.0202036
37441	-0.00117415	0.0201446
37480	-0.000983412	0.0201119
37519	-0.00104063	0.0200699
37558	-0.00105971	0.0199557
37597	-0.00102156	0.0199048
37636	-0.000983412	0.0199035
37675	-0.00107878	0.0198057
37714	-0.00100249	0.0198196
37753	-0.00109786	0.019789
37792	-0.00100249	0.0196932
37831	-0.00104063	0.0195977
37870	-0.00104063	0.0196106
37909	-0.00100249	0.0195308
37948	-0.00104063	0.0194565
37987	-0.00109786	0.0194144
38026	-0.00105971	0.019372
38065	-0.000983412	0.0193073
38104	-0.00111693	0.0193016
38143	-0.0012123	0.0192188
38182	-0.00117415	0.0191285
38221	-0.00109786	0.0191009
38260	-0.000907116	0.0191201
38299	-0.00104063	0.0190547
38338	-0.000888042	0.0190208
38377	-0.00105971	0.0189418
38416	-0.00104063	0.0189109
38455	-0.000983412	0.018898
38494	-0.00102156	0.0187717
38533	-0.00102156	0.0187763
38572	-0.00111693	0.018707
38611	-0.00113601	0.0187209
38650	-0.000907116	0.018637
38689	-0.00115508	0.0186511
38728	-0.000964338	0.0185803
38767	-0.000849894	0.0184924
38806	-0.00104063	0.0185022
38845	-0.00117415	0.0183921
38884	-0.000907116	0.0183564
38923	-0.00111693	0.0183243
38962	-0.000868968	0.0183258
39001	-0.000983412	0.0182315
39040	-0.00100249	0.0181878
39079	-0.00100249	0.0181712
39118	-0.00109786	0.0180814
39157	-0.00117415	0.0180897
39196	-0.00115508	0.0180175
39235	-0.00119323	0.0179337
39274	-0.00100249	0.017979
39313	-0.000964338	0.0179004
39352	-0.00105971	0.0178407
39391	-0.00111693	0.017834
39430	-0.00119323	0.0178179
39469	-0.00109786	0.0177398
39508	-0.00083082	0.0176737
39547	-0.0012123	0.0176597
39586	-0.00102156	0.0175601
39625	-2.00083	-24.2929
39664	-2.00092	-10.9624
39703	-2.00086	-8.52784
39742	-2.00075	-7.92308
39781	-2.00098	-7.69787
39820	-2.00086	-7.57442
39859	-2.00062	-7.5258
39898	-2.00079	-7.50641
39937	-2.00086	-7.51475
39976	-2.00092	-7.50736
40015	-2.00081	-7.51374
40054	-2.00092	-7.52812
40093	-2.00069	-7.57685
40132	-2.00077	-7.59813
40171	-2.00096	-7.61989
40210	-2.00081	-7.64813
40249	-2.00088	-7.68539
40288	-2.00104	-7.73317
40327	-2.00088	-7.73291
40366	-2.00094	-7.77185
40405	-2.0009	-7.81911
40444	-2.00075	-7.84444
40483	-2.00077	-7.8694
40522	-0.000964338	8.0263
40561	-0.00105971	2.4644
40600	-0.00109786	1.4306
40639	-0.00109786	1.01324
40678	-0.00104063	0.79965
40717	-0.00111693	0.672257
40756	-0.00100249	0.589266
40795	-0.000792671	0.529694
40834	-0.00104063	0.484416
40873	-0.000983412	0.448313
40912	-0.00102156	0.420986
40951	-0.00102156	0.398714
40990	-0.00104063	0.378482
41029	-0.000849894	0.36167
41068	-0.000964338	0.346998
41107	-0.00100249	0.334854
41146	-0.00104063	0.322747
41185	-0.00111693	0.311991
41224	-0.00111693	0.30249
41263	-0.00107878	0.294073
41302	-0.00105971	0.285988
41341	-0.00100249	0.277749
41380	-0.00102156	0.270687
41419	-0.00100249	0.264167
41458	-0.00117415	0.258434
41497	-0.000907116	0.251978
41536	-0.00107878	0.246511
41575	-0.000964338	0.24128
41614	-0.00102156	0.236858
41653	-0.00113601	0.23181
41692	-0.00102156	0.227077
41731	-0.00109786	0.222832
41770	-0.00102156	0.219042
41809	-0.00111693	0.215373
41848	-0.00123138	0.211261
41887	-0.00107878	0.207683
41926	-0.000964338	0.204483
41965	-0.000945264	0.201524
42004	-0.00109786	0.198262
42043	-0.00102156	0.195176
42082	-0.00102156	0.192346
42121	-0.00119323	0.189915
42160	-0.00113601	0.187102
42199	-0.00102156	0.184381
42238	-0.00107878	0.181926
42277	-0.00107878	0.179888
42316	-0.000888042	0.177597
42355	-0.00105971	0.175112
42394	-0.00113601	0.172943
42433	-0.000945264	0.171076
42472	-0.00115508	0.169195
42511	-0.00115508	0.166866
42550	-0.00107878	0.164762
42589	-0.00113601	0.163083
42628	-0.00104063	0.161444
42667	-0.00123138	0.159432
42706	-0.000849894	0.157573
42745	-0.00119323	0.15589
42784	-0.000888042	0.154336
42823	-0.000849894	0.152663
42862	-0.00107878	0.150977
42901	-0.0012123	0.149304
42940	-0.00102156	0.147965
42979	-0.000868968	0.14671
43018	-0.00107878	0.144985
43057	-0.000907116	0.14342
43096	-0.00104063	0.142029
43135	-0.00107878	0.140964
43174	-0.00107878	0.139414
43213	0.499273	4.12608
43252	0.499349	1.88767
43291	0.499254	1.33355
43330	0.49914	1.0847
43369	0.49914	0.946347
43408	0.499178	0.855688
43447	0.499235	0.788733
43486	0.499273	0.734752
43525	0.499407	0.689826
43564	0.499311	0.651937
43603	0.499311	0.619141
43642	0.499273	0.59026
43681	0.499159	0.564288
43720	0.49933	0.541271
43759	0.499197	0.520503
43798	0.499273	0.502031
43837	0.499273	0.484851
43876	0.499197	0.467446
43915	0.499407	0.453209
43954	0.499235	0.440287
43993	0.499292	0.42809
44032	0.499521	0.416445
44071	0.499349	0.405903
44110	0.499292	0.396132
44149	0.499178	0.387082
44188	0.499235	0.378157
44227	0.499159	0.370019
44266	0.499159	0.362386
44305	0.499178	0.355521
44344	0.499121	0.348495
44383	0.49914	0.341925
44422	0.499121	0.33576
44461	0.498987	0.330185
44500	0.499044	0.324602
44539	0.499044	0.319117
44578	0.499254	0.31415
44617	0.499216	0.309356
44656	0.499178	0.304925
44695	0.499121	0.300281
44734	0.49914	0.296008
44773	0.499254	0.291986
44812	0.499159	0.288448
44851	0.499311	0.284508
44890	0.499159	0.280822
44929	0.499101	0.277343
44968	0.499311	0.274199
45007	-0.00109786	-1.37215
45046	-0.00115508	-0.125468
45085	-0.00105971	-0.0237082
45124	-0.000983412	0.00798339
45163	-0.00111693	0.0222307
45202	-0.00109786	0.0292836
45241	-0.000983412	0.0333708
45280	-0.00102156	0.0357038
45319	-0.00113601	0.0372003
45358	-0.00105971	0.0379965
45397	-0.000983412	0.0383119
45436	-0.00109786	0.0385152
45475	-0.00107878	0.0386057
45514	-0.000907116	0.0385602
45553	-0.00109786	0.0383324
45592	-0.00105971	0.0381194
45631	-0.000964338	0.0378557
45670	-0.00109786	0.0377142
45709	-0.0012123	0.0373587
45748	-0.00100249	0.0371055
45787	-0.000849894	0.0366748
45826	-0.00105971	0.0365545
45865	-0.00104063	0.0362169
45904	-0.00107878	0.0358484
45943	-0.00109786	0.0356406
45982	-0.00102156	0.0353561
46021	-0.00104063	0.0350877
46060	-0.00126952	0.0347561
46099	-0.000983412	0.0344563
46138	-0.00109786	0.034172
46177	-0.0012123	0.0339921
46216	-0.00109786	0.0336543
46255	-0.00115508	0.0333884
46294	-0.00102156	0.0331366
46333	-0.00102156	0.0328972
46372	-0.000888042	0.0326246
46411	-0.00117415	0.0324495
46450	-0.00102156	0.0321337
46489	-0.00092619	0.031989
46528	-0.00105971	0.0317814
46567	-0.00132675	0.0315358
46606	-0.00123138	0.0312801
46645	-0.00100249	0.0311017
46684	-0.00119323	0.0309176
46723	-0.00115508	0.0307199
46762	-0.000773597	0.0304964
46801	-0.00105971	0.0302963
46840	-0.000888042	0.0301125
46879	-0.00113601	0.0299335
46918	-0.000868968	0.0297099
46957	-0.00107878	0.0295104
46996	-0.00102156	0.029381
47035	-0.00092619	0.0292296
47074	-0.00100249	0.0289879
47113	-0.00115508	0.028819
47152	-0.00105971	0.0286636
47191	-0.000945264	0.0285359
47230	-0.00102156	0.0283731
47269	-0.000868968	0.0281627
47308	-0.00117415	0.0280125
47347	-0.000983412	0.0279302
47386	-0.00105971	0.0277082
47425	-0.00109786	0.0275286
47464	-0.00105971	0.0274167
47503	-0.00117415	0.0272694
47542	-0.00100249	0.0271269
47581	-0.00113601	0.0269886
47620	-0.000907116	0.0268275
47659	-0.000945264	0.0266798
47698	-0.000945264	0.0265947
47737	-0.00117415	0.0264084
47776	-0.00125045	0.0262974
47815	-0.000945264	0.0261567
47854	-0.00105971	0.0260815
47893	-0.00105971	0.0259035
47932	-0.00115508	0.0257861
47971	-0.000983412	0.0256831
48010	-0.00100249	0.0255898
48049	-0.000983412	0.0254886
48088	-0.00115508	0.0253056
48127	-0.00125045	0.0251185
48166	-0.000964338	0.025019
48205	-0.000983412	0.0249326
48244	-0.000945264	0.0248556
48283	-0.00107878	0.0247168
48322	-0.00104063	0.0245784
48361	-0.00115508	0.0245249
48400	-0.000888042	0.0244146
48439	-0.000983412	0.0243048
48478	-0.00115508	0.0241795
48517	-0.00115508	0.0240659
48556	-0.000983412	0.0240345
48595	-0.00111693	0.02394
48634	-0.000945264	0.0237538
48673	-0.00115508	0.0236225
48712	-0.00113601	0.0235928
48751	-0.00117415	0.0235203
48790	-0.00105971	0.0234122
48829	-0.00104063	0.0233321
48868	-0.00109786	0.0232292
48907	-0.0012123	0.0230743
48946	-0.00109786	0.0230177
48985	-0.00109786	0.0229343
49024	-0.000964338	0.0228574
49063	-0.00109786	0.0227917
49102	-0.00100249	0.0226228
49141	-0.00107878	0.0225953
49180	-0.000964338	0.022525
49219	-0.00107878	0.0223914
49258	-0.00115508	0.022306
49297	-0.00117415	0.0221712
49336	-0.00102156	0.0221139
49375	-0.00113601	0.0220802
49414	-0.000983412	0.0219463
49453	-0.00102156	0.0218374
49492	-0.00105971	0.0218088
49531	-0.000964338	0.021824
49570	-0.00123138	0.0216837
49609	-0.0012123	0.0215946
49648	-0.00125045	0.0214847
49687	-0.00100249	0.0214265
49726	-0.00113601	0.0213901
49765	-0.00102156	0.0212824
49804	-0.0012123	0.0212084
49843	-0.00092619	0.0210989
49882	-0.00100249	0.0210782
49921	-0.00107878	0.0209645
49960	-0.000907116	0.0208987
49999	-0.00126952	0.0208322
50038	-0.00092619	0.0207568
50077	-0.00109786	0.0207016
50116	-0.000792671	0.020606
50155	-0.000945264	0.0205232
50194	-0.00092619	0.0204773
50233	-0.000964338	0.020434
50272	-0.000907116	0.0203841
50311	-0.0012123	0.0202434
50350	-0.00092619	0.0202086
50389	-0.00111693	0.02015
50428	-0.00100249	0.0200923
50467	-0.000945264	0.0200006
50506	-0.00102156	0.0200189
50545	-0.00109786	0.0199284
50584	-0.00111693	0.0199237
50623	-0.00102156	0.0198271
50662	-0.00119323	0.0197753
50701	-0.000849894	0.0197432
50740	-0.00102156	0.0196292
50779	-0.00125045	0.019532
50818	-0.000964338	0.0194204
50857	-0.00109786	0.0194763
50896	-0.00130767	0.0193911
50935	-0.00117415	0.0193951
50974	-0.000773597	0.0193073
51013	-0.00104063	0.0192156
51052	-0.00104063	0.0191806
51091	-0.00109786	0.0191452
51130	-0.00109786	0.0190895
51169	-0.00102156	0.0190175
51208	-0.00138397	0.0189213
51247	-0.000907116	0.0188941
51286	-0.00123138	0.0188076
51325	-0.00100249	0.0187924
51364	-0.00105971	0.0186716
51403	-0.000945264	0.0186857
51442	-0.00111693	0.0186533
51481	-0.00123138	0.018566
51520	-0.00113601	0.0185338
51559	-0.00102156	0.0184522
51598	-0.00117415	0.0184199
51637	-0.00092619	0.0183717
51676	-0.000907116	0.0183448
51715	-0.000907116	0.0182824
51754	-0.000811746	0.0182343
51793	-0.000754523	0.0181909
51832	-0.00102156	0.0181493
51871	-0.00111693	0.0180805
51910	-0.00105971	0.0180938
51949	-0.00104063	0.0179468
51988	-0.00109786	0.0179394
52027	-0.00107878	0.017849
52066	-0.00102156	0.0179086
52105	-0.000907116	0.0178099
52144	-0.0012123	0.0178274
52183	-0.00100249	0.0177399
52222	-0.00107878	0.0176934
52261	-0.00104063	0.0176727
52300	-0.000907116	0.0176136
52339	-0.00104063	0.0175935
52378	-0.00102156	0.0175119
52417	-0.00107878	0.0174443
52456	-0.000907116	0.0174582
52495	-0.000983412	0.0174103
52534	-0.00102156	0.017341
52573	-0.00111693	0.0172938
52612	-0.00102156	0.0173205
52651	-0.00119323	0.0172099
52690	-0.00104063	0.0171528
52729	-0.000964338	0.0171161
52768	-0.00104063	0.0171016
52807	-0.00107878	0.0170458
52846	-0.00113601	0.0170463
52885	-0.00117415	0.0169715
52924	-0.000964338	0.0170062
52963	-0.000983412	0.0169216
53002	-0.00092619	0.0168792
53041	-0.00092619	0.0168225
53080	-0.00123138	0.0167915
53119	-0.000888042	0.0167947
53158	-0.00104063	0.0167129
53197	-0.000945264	0.0166697
53236	-0.00102156	0.016624
53275	-0.00111693	0.0166724
53314	-0.000983412	0.0166108
53353	-0.00109786	0.0165482
53392	-0.00119323	0.0165469
53431	-0.000888042	0.0165333
53470	-0.000945264	0.0164655
53509	-0.000907116	0.0163667
53548	-0.00111693	0.0163953
53587	-0.00100249	0.0164099
53626	-0.00107878	0.016354
53665	-0.000811746	0.0163374
53704	-0.00105971	0.0163687
53743	-0.00105971	0.0162477
53782	-0.00113601	0.0163076
53821	-0.000888042	0.016197
53860	-0.000983412	0.0161578
53899	-0.00111693	0.0161045
53938	-0.000945264	0.0161002
53977	-0.00111693	0.0160619
54016	-2.00077	-31.5537
54055	-2.00064	-11.3923
54094	-2.00071	-8.25526
54133	-2.00077	-7.47682
54172	-2.00086	-7.19781
54211	-2.00077	-7.08749
54250	-2.00096	-7.0719
54289	-2.00096	-7.06085
54328	-2.00083	-7.06263
54367	-2.00077	-7.08306
54406	-2.001	-7.12678
54445	-2.00075	-7.17368
54484	-2.00106	-7.19991
54523	-2.00081	-7.23574
54562	-2.00086	-7.28089
54601	-2.00085	-7.33537
54640	-2.00069	-7.35904
54679	-2.001	-7.39172
54718	-2.00085	-7.42525
54757	-2.00092	-7.46996
54796	-2.00085	-7.4876
54835	-2.00081	-7.51315
54874	-2.00077	-7.56091
54913	-0.000888042	14.1411
54952	-0.00100249	2.98425
54991	-0.000945264	1.56584
55030	-0.00117415	1.06275
55069	-0.00105971	0.814252
55108	-0.00109786	0.670735
55147	-0.000983412	0.574856
55186	-0.00100249	0.509364
55225	-0.000945264	0.45933
55264	-0.000983412	0.423441
55303	-0.00092619	0.393431
55342	-0.00113601	0.368893
55381	-0.00102156	0.348866
55420	-0.00126952	0.332247
55459	-0.00104063	0.317459
55498	-0.00083082	0.303694
55537	-0.00111693	0.291918
55576	-0.00092619	0.281536
55615	-0.000868968	0.272641
55654	-0.00107878	0.263501
55693	-0.000964338	0.255333
55732	-0.00105971	0.247875
55771	-0.00107878	0.241635
55810	-0.00102156	0.235147
55849	-0.000907116	0.229059
55888	-0.00113601	0.223484
55927	-0.000868968	0.218491
55966	-0.000868968	0.213629
56005	-0.000964338	0.208671
56044	-0.00105971	0.204151
56083	-0.00119323	0.200254
56122	-0.00104063	0.196695
56161	-0.00092619	0.192562
56200	-0.00115508	0.188865
56239	-0.000983412	0.185644
56278	-0.00104063	0.182713
56317	-0.000811746	0.179694
56356	-0.00104063	0.176503
56395	-0.00102156	0.173859
56434	-0.000983412	0.171474
56473	-0.000964338	0.168853
56512	-0.00113601	0.166118
56551	-0.00117415	0.163775
56590	-0.00104063	0.161669
56629	-0.000983412	0.159643
56668	-0.00111693	0.157524
56707	-0.00111693	0.155315
56746	-0.00102156	0.153539
56785	-0.000983412	0.151872
56824	-0.000964338	0.149848
56863	-0.000983412	0.147943
56902	-0.00107878	0.146203
56941	-0.000754523	0.144655
56980	-0.00092619	0.143012
57019	-0.00100249	0.141335
57058	-0.00107878	0.139652
57097	-0.000945264	0.138262
57136	-0.00109786	0.137001
57175	-0.00102156	0.135409
57214	-0.00109786	0.133897
57253	-0.00109786	0.132596
57292	-0.000964338	0.131373
57331	-0.000907116	0.129945
57370	-0.00105971	0.128589
57409	-0.00115508	0.127369
57448	-0.00100249	0.126193
57487	-0.00104063	0.124973
57526	-0.00113601	0.123647
57565	-0.00102156	0.122497
57600	-0.00100249	0.120323