File: Data_31_Experiment/CA_001_C01.txt
time/s	Ewe/V	<I>/mA
1	1.49945	283.212
40	1.4996	17.9417
79	1.49945	19.1774
118	1.49947	22.2044
157	1.49957	23.478
196	1.49953	23.5164
235	1.49945	22.3061
274	1.49947	20.8227
313	1.49943	19.4392
352	1.49959	18.3586
391	1.49951	17.4969
430	1.49941	16.8311
469	1.49953	16.2662
508	1.49949	15.7724
547	1.49955	15.3479
586	1.49947	14.9763
625	1.49949	14.6059
664	1.4996	14.248
703	1.49959	13.8937
742	1.49959	13.5591
781	1.49951	13.2167
820	1.49951	12.8718
859	1.49936	12.5302
898	1.49943	12.189
937	1.49949	11.8461
976	1.49966	11.5008
1015	1.49934	11.1621
1054	1.49957	10.8305
1093	1.49951	10.5029
1132	1.49972	10.1741
1171	1.49949	9.85846
1210	1.49957	9.55425
1249	1.49949	9.25114
1288	1.49943	8.952
1327	1.49953	8.67088
1366	1.49959	8.38947
1405	1.49957	8.12907
1444	1.49949	7.85712
1483	1.49962	7.598
1522	1.49964	7.35718
1561	1.49934	7.11915
1600	1.49959	6.89652
1639	1.49955	6.67052
1678	1.49949	6.46975
1717	1.49945	6.27297
1756	1.49943	6.08272
1795	1.49943	5.88617
1833.95	-0.000897627	-0.743195
1872.95	-0.000859479	0.214096
1911.95	-0.000878553	0.223774
1950.95	-0.000878553	0.191758
1989.95	-0.000897627	0.169598
2028.95	-0.000897627	0.141006
2067.95	-0.000783182	0.11636
2106.95	-0.00108837	0.103679
2145.95	-0.000973923	0.113659
2184.95	-0.000992997	0.107518
2223.95	-0.000878553	0.0946994
2262.95	-0.000897627	0.083544
2301.95	-0.00106929	0.0944302
2340.95	-0.00101207	0.0934413
2379.95	-0.00106929	0.0847505
2418.95	-0.000954849	0.0732456
2457.95	-0.000878553	0.0759112
2496.95	-0.00106929	0.0807064
2535.95	-0.00101207	0.0746489
2574.95	-0.000859479	0.064831
2613.95	-0.000916701	0.0616098
2652.95	-0.000859479	0.0697675
2691.95	-0.000840404	0.0674565
2730.95	-0.000973923	0.0597949
2769.95	-0.000840404	0.0520542
2808.95	-0.000954849	0.0610442
2847.95	-0.000954849	0.0614377
2886.95	-0.000973923	0.055496
2925.95	-0.000992997	0.0480554
2964.95	-0.000859479	0.0514042
3003.95	-0.00082133	0.0552157
3042.95	-0.000992997	0.0517829
3081.95	-0.000954849	0.044617
3120.95	-0.000859479	0.0431523
3159.95	-0.00101207	0.04959
3198.95	-0.000935775	0.0481639
3237.95	-0.000992997	0.0432356
3276.95	-0.000916701	0.0370239
3315.95	-0.000992997	0.0443879
3354.95	-0.00082133	0.0455137
3393.95	-0.00106929	0.0411968
3432.95	-0.000840404	0.0347802
3471.95	-0.000935775	0.0388331
3510.95	-0.000935775	0.0420735
3549.95	-0.000878553	0.0396719
3588.95	-0.000878553	0.0340144
3627.95	-0.000935775	0.0338536
3666.95	-0.000859479	0.0392926
3705.95	-0.000973923	0.0384403
3744.95	-0.000954849	0.0341836
3783.95	-0.000859479	0.0297373
3822.95	-0.000916701	0.0364054
3861.95	-0.000916701	0.0368428
3900.95	-0.000745034	0.0336477
3939.95	-0.000859479	0.0287577
3978.95	-0.00103115	0.0326996
4017.95	-0.000954849	0.0355946
4056.95	-0.000916701	0.0335692
4095.95	-0.000935775	0.0290713
4134.95	-0.000878553	0.0295203
4173.95	-0.000935775	0.0336441
4212.95	-0.000935775	0.0331263
4251.95	-0.00105022	0.0296279
4290.95	-0.000859479	0.0261825
4329.95	-0.00101207	0.0319288
4368.95	-0.000935775	0.0323462
4407.95	-0.000935775	0.0298458
4446.95	-0.000992997	0.0256349
4485.95	-0.000992997	0.0294042
4524.95	-0.000992997	0.0315296
4563.95	-0.000935775	0.0301121
4602.95	-0.000897627	0.0262423
4641.95	-0.000840404	0.0268989
4680.95	-0.000992997	0.030405
4719.95	-0.000878553	0.0300423
4758.95	-0.000973923	0.0267668
4797.95	-0.000897627	0.024565
4836.95	-0.000783182	0.0294819
4875.95	-0.000897627	0.0300621
4914.95	-0.000973923	0.0278185
4953.95	-0.000897627	0.0242179
4992.95	-0.000897627	0.0277495
5031.95	-0.000916701	0.0292696
5070.95	-0.000897627	0.0278932
5109.95	-0.00105022	0.0247421
5148.95	-0.000897627	0.0258278
5187.95	-0.000859479	0.028646
5226.95	-0.000935775	0.0280643
5265.95	-0.00112652	0.0256885
5304.95	-0.000935775	0.0239564
5343.95	-0.000916701	0.0276042
5382.95	-0.000878553	0.028061
5421.95	-0.000973923	0.0262205
5460.95	-0.000878553	0.02389
5499.95	-0.000878553	0.0273506
5538.95	-0.000973923	0.0285233
5577.95	-0.000802256	0.0271122
5616.95	-0.000897627	0.0247279
5655.95	-0.000954849	0.0259837
5694.95	-0.000916701	0.0280149
5733.95	-0.000973923	0.0276398
5772.95	-0.000840404	0.0253512
5811.95	-0.00101207	0.0241925
5850.95	-0.000916701	0.0275126
5889.95	-0.000992997	0.0278858
5928.95	-0.000973923	0.0262393
5967.95	-0.000897627	0.0237621
6006.95	-0.00101207	0.0269592
6045.95	-0.000878553	0.0277379
6084.95	-0.000935775	0.0268364
6123.95	-0.000840404	0.0242198
6162.95	-0.00082133	0.0259653
6201.95	-0.00101207	0.0275715
6240.95	-0.000973923	0.0272589
6279.95	-0.000992997	0.0254302
6318.95	-0.000935775	0.0243934
6357.95	-0.000897627	0.027031
6396.95	-0.000916701	0.027008
6435.95	-0.000897627	0.0255975
6474.95	-0.00101207	0.0239067
6513.95	-0.00105022	0.0264533
6552.95	-0.000897627	0.027078
6591.95	-0.000935775	0.0259034
6630.95	-0.00101207	0.0238959
6669.95	-0.000973923	0.0256101
6708.95	-0.000897627	0.0266289
6747.95	-0.000916701	0.0261756
6786.95	-0.000935775	0.0242639
6825.95	-0.000973923	0.0237925
6864.95	-0.000916701	0.0259993
6903.95	-0.000935775	0.026012
6942.95	-0.000878553	0.0247676
6981.95	-0.00105022	0.0229892
7020.95	-0.000916701	0.0253533
7059.95	-0.000935775	0.0258747
7098.95	-0.00110744	0.0248024
7137.95	-0.00108837	0.0230265
7176.95	-0.000954849	0.0245634
7215.95	-0.000954849	0.0253589
7254.95	-0.00101207	0.0249796
7293.95	-0.000935775	0.0233502
7332.95	-0.000935775	0.023303
7371.95	-0.000916701	0.0250998
7410.95	-0.000992997	0.0250667
7449.95	-0.000764108	0.0239075
7488.95	-0.000973923	0.0224264
7527.95	-0.000973923	0.02471
7566.95	-0.000897627	0.0252187
7605.95	-0.000878553	0.0243642
7644.95	-0.000745034	0.0226804
7683.95	-0.00105022	0.0241586
7722.95	-0.000916701	0.0248475
7761.95	-0.00082133	0.0243705
7800.95	-0.00103115	0.0230241
7839.95	-0.000916701	0.0230886
7878.95	-0.000745034	0.0244263
7917.95	-0.000954849	0.0244105
7956.95	-0.000916701	0.023374
7995.95	-0.000802256	0.0221913
8034.95	-0.000954849	0.0240454
8073.95	-0.000840404	0.0242523
8112.95	-0.000916701	0.0235175
8151.95	-0.000954849	0.0221565
8190.95	-0.000935775	0.0236714
8229.95	-0.00101207	0.0240345
8268.95	-0.000859479	0.0236457
8307.95	-0.000840404	0.0223226
8346.95	-0.000897627	0.0227185
8385.95	-0.00110744	0.0237865
8424.95	-0.000840404	0.0237075
8463.95	-0.00082133	0.0226857
8502.95	-0.00106929	0.0219229
8541.95	-0.000897627	0.0235342
8580.95	-0.000973923	0.0236255
8619.95	-0.000897627	0.0229744
8658.95	-0.000783182	0.0217264
8697.95	-0.000992997	0.0232701
8736.95	-0.000745034	0.0235132
8775.95	-0.000745034	0.0230678
8814.95	-0.000954849	0.0218104
8853.95	-0.000916701	0.0222769
8892.95	-0.000916701	0.0232065
8931.95	-0.000745034	0.0230207
8970.95	-0.000802256	0.0221625
9009.95	-0.000935775	0.0215118
9048.95	-0.00072596	0.0231188
9087.95	-0.000897627	0.0231644
9126.95	-0.000878553	0.0226575
9165.95	-0.000916701	0.0213172
9204.95	-0.000897627	0.0229509
9243.95	-0.000897627	0.0229915
9282.95	-0.000897627	0.0225274
9321.95	-0.000954849	0.0215231
9360.95	-0.000859479	0.0221693
9399.95	-0.000954849	0.0228446
9438.95	-0.000706886	0.0226579
9477.95	-0.000916701	0.0218605
9516.95	-0.000973923	0.0212909
9555.95	-0.000878553	0.0225615
9594.95	-0.000859479	0.0225992
9633.95	-0.000897627	0.021959
9672.95	-0.00108837	0.0211247
9711.95	-0.00082133	0.022486
9750.95	-0.00101207	0.0225913
9789.95	-0.000878553	0.0220871
9828.95	-0.000954849	0.0210955
9867.95	-0.000859479	0.021891
9906.95	-0.00103115	0.0223584
9945.95	-0.00101207	0.0222248
9984.95	-0.00105022	0.0215676
10024	-0.000859479	0.0213725
10063	-0.000916701	0.0222206
10102	-0.000916701	0.0222481
10141	-0.00103115	0.0217617
10180	-0.000916701	0.0210589
10219	-0.000897627	0.0223905
10258	-0.00103115	0.0223638
10297	-0.000840404	0.021833
10336	-0.000878553	0.0209078
10375	-0.000916701	0.0217412
10414	-0.000992997	0.0218866
10453	-0.000935775	0.0217478
10492	-0.000954849	0.0212105
10531	-0.000973923	0.0210995
10570	-0.000916701	0.0219429
10609	-0.000859479	0.0219944
10648	-0.000897627	0.0216299
10687	-0.000973923	0.0209087
10726	-0.00101207	0.0222608
10765	-0.000897627	0.0221805
10804	-2.0011	-147.897
10843	-2.00089	-50.5586
10882	-2.00097	-33.3751
10921	-2.0008	-24.6056
10960	-2.0008	-19.2028
10999	-2.00087	-15.4764
11038	-2.00076	-12.7823
11077	-2.00082	-10.7901
11116	-2.00099	-9.25685
11155	-2.00076	-8.06565
11194	-2.00093	-7.1515
11233	-2.00097	-6.43714
11272	-2.00084	-5.83677
11311	-2.00084	-5.34548
11350	-2.00093	-4.90863
11389	-2.00097	-4.60579
11428	-2.00091	-4.30281
11467	-2.00101	-4.0383
11506	-2.00084	-3.80576
11545	-2.00087	-3.6158
11584	-2.00082	-3.45434
11623	-2.00087	-3.28662
11662	-2.00078	-3.13933
11701	-0.000935775	142.487
11740	-0.000764108	3.24415
11779	-0.000916701	1.90168
11818	-0.000802256	1.48846
11857	-0.000973923	1.28661
11896	-0.000954849	1.18901
11935	-0.000916701	1.09111
11974	-0.000878553	1.01719
12013	-0.00082133	0.96131
12052	-0.000935775	0.924764
12091	-0.000973923	0.892627
12130	-0.000992997	0.849714
12169	-0.000992997	0.817499
12208	-0.000935775	0.792116
12247	-0.00072596	0.786951
12286	-0.000878553	0.753329
12325	-0.000935775	0.730249
12364	-0.000859479	0.710154
12403	-0.000973923	0.711106
12442	-0.000897627	0.688549
12481	-0.000840404	0.67
12520	-0.000954849	0.65434
12559	-0.00105022	0.649343
12598	-0.000878553	0.643036
12637	-0.000916701	0.625519
12676	-0.000973923	0.612789
12715	-0.000916701	0.603356
12754	-0.000954849	0.608504
12793	-0.000992997	0.590141
12832	-0.000916701	0.578563
12871	-0.000878553	0.568441
12910	-0.000916701	0.573916
12949	-0.000859479	0.560196
12988	-0.000897627	0.549236
13027	-0.000935775	0.539755
13066	-0.000992997	0.53891
13105	-0.000859479	0.535491
13144	-0.000897627	0.524018
13183	-0.000954849	0.515374
13222	-0.00112652	0.509243
13261	-0.000840404	0.514072
13300	-0.00103115	0.500665
13339	-0.00105022	0.492428
13378	-0.000916701	0.485031
13417	-0.000840404	0.48853
13456	-0.000954849	0.477479
13495	-0.00101207	0.469488
13534	-0.00101207	0.462864
13573	-0.000783182	0.462484
13612	-0.000897627	0.459295
13651	-0.000935775	0.450469
13690	-0.000954849	0.443791
13729	-0.000973923	0.439371
13768	-0.000954849	0.443149
13807	-0.000897627	0.432748
13846	-0.000840404	0.426287
13885	-0.000745034	0.420628
13924	-0.00106929	0.425265
13963	-0.000935775	0.416214
14002	-0.000954849	0.409738
14041	-0.000954849	0.403735
14080	-0.00103115	0.404478
14119	-0.00106929	0.40124
14158	-0.000935775	0.394148
14197	-0.000878553	0.388765
14236	-0.000897627	0.385575
14275	-0.000745034	0.387982
14314	-0.000745034	0.379834
14353	-0.000840404	0.374423
14392	-0.00103115	0.36963
14431	1.4994	32.7056
14470	1.49959	17.0756
14509	1.49945	12.774
14548	1.49957	10.865
14587	1.49941	9.7477
14626	1.4994	9.11187
14665	1.49968	8.68257
14704	1.49945	8.33755
14743	1.4994	8.06189
14782	1.4997	7.80215
14821	1.49953	7.65839
14860	1.4996	7.51969
14899	1.49959	7.39564
14938	1.49962	7.2207
14977	1.49945	7.14634
15016	1.49947	7.05757
15055	1.49953	6.96212
15094	1.49949	6.84893
15133	1.49955	6.78647
15172	1.49955	6.72216
15211	1.49957	6.65356
15250	1.49972	6.55817
15289	1.49966	6.46229
15328	1.49949	6.44253
15367	1.49955	6.38379
15406	1.49968	6.31839
15445	1.49962	6.2085
15484	1.49943	6.17855
15523	1.49945	6.12156
15562	1.49951	6.06459
15601	1.49951	5.96985
15640	1.49959	5.92694
15679	1.49945	5.88407
15718	1.49964	5.82988
15757	1.49945	5.75477
15796	1.49955	5.65535
15835	1.49951	5.63321
15874	1.49957	5.56152
15913	1.49959	5.49382
15952	1.49947	5.37763
15991	1.49949	5.35371
16030	1.49959	5.29796
16069	1.49955	5.23668
16108	1.49938	5.12409
16147	1.49968	5.06691
16186	1.49953	5.02184
16225	-0.000897627	-1.44846
16264	-0.00082133	-0.203779
16303	-0.000973923	0.0872654
16342	-0.000916701	0.142889
16381	-0.00101207	0.154584
16420	-0.000878553	0.153109
16459	-0.000973923	0.155594
16498	-0.000783182	0.148796
16537	-0.000897627	0.139469
16576	-0.000992997	0.129959
16615	-0.000935775	0.127917
16654	-0.000802256	0.125396
16693	-0.000802256	0.121214
16732	-0.000840404	0.11579
16771	-0.000840404	0.113105
16810	-0.00106929	0.112686
16849	-0.00105022	0.109423
16888	-0.000935775	0.105064
16927	-0.000935775	0.100997
16966	-0.000859479	0.10241
17005	-0.000840404	0.100005
17044	-0.00082133	0.0970683
17083	-0.000840404	0.0932204
17122	-0.000840404	0.0939606
17161	-0.000916701	0.0925239
17200	-0.000916701	0.0903999
17239	-0.000973923	0.0870275
17278	-0.000935775	0.0858553
17317	-0.000859479	0.086027
17356	-0.000840404	0.0842748
17395	-0.000878553	0.0818993
17434	-0.000878553	0.0798056
17473	-0.00082133	0.0813872
17512	-0.000954849	0.0798664
17551	-0.00103115	0.0780933
17590	-0.000954849	0.0755784
17629	-0.000840404	0.0767917
17668	-0.000992997	0.0760459
17707	-0.000840404	0.0747106
17746	-0.000954849	0.0725811
17785	-0.000859479	0.0726181
17824	-0.000954849	0.0728511
17863	-0.000992997	0.071572
17902	-0.000897627	0.069637
17941	-0.000935775	0.0681871
17980	-0.000935775	0.0697045
18019	-0.000935775	0.0686673
18058	-0.000935775	0.0672298
18097	-0.00103115	0.0654428
18136	-0.000935775	0.0670716
18175	-0.000973923	0.0661433
18214	-0.000954849	0.0650615
18253	-0.000897627	0.0634552
18292	-0.000783182	0.063538
18331	-0.000802256	0.0636659
18370	-0.000973923	0.0628132
18409	-0.000859479	0.0616117
18448	-0.00105022	0.0605586
18487	-0.000897627	0.0620559
18526	-0.000954849	0.0609031
18565	-0.000859479	0.059874
18604	-0.000840404	0.0584479
18643	-0.00082133	0.0598216
18682	-0.000954849	0.0589113
18721	-0.00101207	0.0581029
18760	-0.000916701	0.056944
18799	-0.000935775	0.0573538
18838	-0.00108837	0.0573909
18877	-0.000973923	0.0567104
18916	-0.000916701	0.0555585
18955	-0.000878553	0.0548159
18994	-0.00082133	0.0560356
19033	-0.000897627	0.0552193
19072	-0.00103115	0.0543404
19111	-0.000916701	0.0531428
19150	-0.00101207	0.054617
19189	-0.00082133	0.0538527
19228	-0.000802256	0.0533136
19267	-0.000992997	0.0519807
19306	-0.000916701	0.0528012
19345	-0.000745034	0.0527203
19384	-0.000802256	0.0520895
19423	-0.000897627	0.0510218
19462	-0.00101207	0.0505347
19501	-0.000859479	0.0514237
19540	-0.000783182	0.0507369
19579	-0.000916701	0.0498588
19618	-0.00103115	0.0486054
19657	-0.000878553	0.0499511
19696	-0.000973923	0.0490268
19735	-0.000859479	0.0484642
19774	-0.000878553	0.0474279
19813	-0.000992997	0.0481706
19852	-0.000840404	0.047963
19891	-0.000973923	0.0475573
19930	-0.000840404	0.0467352
19969	-0.000878553	0.0463984
20008	-0.00110744	0.0472773
20047	-0.000916701	0.0466623
20086	-0.000745034	0.045987
20125	-0.000992997	0.0451871
20164	-0.000878553	0.0465598
20203	-0.00105022	0.0458773
20242	-0.000783182	0.0452831
20281	-0.00103115	0.044283
20320	-0.000897627	0.0450859
20359	-0.00101207	0.0447158
20398	-0.000935775	0.0442153
20437	-0.000916701	0.0434491
20476	-0.000954849	0.0435258
20515	-0.000840404	0.0441344
20554	-0.000916701	0.0435906
20593	-0.000878553	0.0429653
20632	-0.00105022	0.0421359
20671	-0.00105022	0.0433785
20710	-0.000878553	0.0424147
20749	-0.000935775	0.0419757
20788	-0.000706886	0.0410833
20827	-0.000935775	0.0419556
20866	-0.000840404	0.0417106
20905	-0.000859479	0.0410614
20944	-0.000992997	0.0404231
20983	-0.000954849	0.0403569
21022	-0.000954849	0.0408343
21061	-0.000935775	0.0403963
21100	-0.000954849	0.0399086
21139	-0.000954849	0.0393385
21178	-0.00106929	0.0404899
21217	-0.000916701	0.0398107
21256	-0.00103115	0.0393008
21295	-0.00105022	0.0385138
21334	-0.000992997	0.0393944
21373	-0.000954849	0.0388564
21412	-0.00108837	0.038596
21451	-0.00105022	0.0379087
21490	-0.00101207	0.0379774
21529	-0.00106929	0.038456
21568	-0.000859479	0.0379385
21607	-0.000840404	0.0374
21646	-0.00101207	0.0369286
21685	-0.000783182	0.0378369
21724	-0.000878553	0.0372149
21763	-0.000973923	0.0366866
21802	-0.00103115	0.0360839
21841	-0.000859479	0.0371394
21880	-0.000878553	0.0365308
21919	-0.00082133	0.0362721
21958	-0.000992997	0.0356864
21997	-0.000897627	0.0359534
22036	-0.000840404	0.036144
22075	-0.000935775	0.0356923
22114	-0.00106929	0.0352829
22153	-0.000897627	0.0348191
22192	-0.000859479	0.0357242
22231	-0.00082133	0.0351896
22270	-0.00108837	0.0347717
22309	-0.000897627	0.0342095
22348	-0.000859479	0.0351416
22387	-0.000992997	0.0346246
22426	-0.000973923	0.0342955
22465	-0.000878553	0.0337254
22504	-0.000802256	0.0342495
22543	-0.000916701	0.0341578
22582	-0.000878553	0.0339015
22621	-0.00101207	0.0338355
22660	-0.000954849	0.0336397
22699	-0.000878553	0.0344387
22738	-0.00101207	0.0338914
22777	-0.000802256	0.0335463
22816	-0.000992997	0.0330122
22855	-0.000859479	0.0339778
22894	-0.000973923	0.0334532
22933	-0.000992997	0.0330771
22972	-0.000935775	0.0325346
23011	-0.000992997	0.0329558
23050	-0.000916701	0.032866
23089	-0.000954849	0.032605
23128	-0.000668738	0.0322651
23167	-0.000954849	0.0320167
23206	-0.000954849	0.0327324
23245	-0.000954849	0.0321482
23284	-0.000973923	0.0317853
23323	-0.000897627	0.0312714
23362	-0.00103115	0.0322569
23401	-0.000954849	0.0316622
23440	-0.000935775	0.0314195
23479	-0.000916701	0.0309924
23518	-0.00106929	0.0313271
23557	-0.000935775	0.031299
23596	-0.000859479	0.0310755
23635	-0.00082133	0.0306378
23674	-0.000916701	0.0305725
23713	-0.00101207	0.0311263
23752	-0.00101207	0.0306334
23791	-0.000954849	0.0303194
23830	-0.000859479	0.0299202
23869	-0.000897627	0.030909
23908	-0.000878553	0.0302036
23947	-0.000973923	0.0298926
23986	-0.000897627	0.0294731
24025	-0.000916701	0.0301279
24064	-0.000954849	0.0298904
24103	-0.000973923	0.0297477
24142	-0.00082133	0.0293707
24181	-0.000859479	0.0292454
24220	-0.00105022	0.029733
24259	-0.00103115	0.0292665
24298	-0.000916701	0.0289823
24337	-0.000859479	0.0287568
24376	-0.000840404	0.0298304
24415	-0.000802256	0.0293
24454	-0.00112652	0.0289516
24493	-0.000973923	0.0285506
24532	-0.000840404	0.0291109
24571	-0.000783182	0.0286986
24610	-0.000954849	0.0285297
24649	-0.000897627	0.028272
24688	-0.00106929	0.0282366
24727	-0.000878553	0.0286607
24766	-0.000878553	0.0283013
24805	-0.000897627	0.0280542
24844	-0.000897627	0.0276604
24883	-0.000878553	0.0286137
24922	-0.000992997	0.0280081
24961	-0.000802256	0.0277134
25000	-0.000878553	0.0274043
25039	-0.000954849	0.0280453
25078	-0.000954849	0.0276589
25117	-0.00101207	0.0275078
25156	-0.000935775	0.0271571
25195	-0.00106929	0.0272248
25234	-2.00086	-45.5847
25273	-2.00086	-25.6928
25312	-2.00099	-17.6595
25351	-2.00074	-13.3666
25390	-2.00097	-10.7191
25429	-2.0008	-8.8682
25468	-2.00087	-7.53807
25507	-2.00095	-6.54671
25546	-2.0008	-5.7896
25585	-2.00089	-5.19498
25624	-2.0008	-4.7296
25663	-2.00093	-4.34324
25702	-2.00072	-4.01978
25741	-2.00087	-3.76413
25780	-2.00084	-3.53789
25819	-2.00097	-3.32973
25858	-2.00091	-3.15232
25897	-2.00084	-3.01948
25936	-2.00087	-2.87473
25975	-2.00087	-2.7496
26014	-2.00097	-2.6414
26053	-2.00093	-2.54798
26092	-2.00078	-2.45688
26131	-0.000802256	3.49125
26170	-0.000840404	1.65866
26209	-0.000802256	1.19728
26248	-0.000878553	0.998122
26287	-0.000916701	0.862468
26326	-0.000840404	0.774389
26365	-0.000973923	0.708167
26404	-0.000973923	0.669726
26443	-0.000687812	0.618165
26482	-0.000840404	0.578753
26521	-0.000859479	0.544596
26560	-0.000973923	0.524987
26599	-0.000935775	0.499096
26638	-0.000954849	0.472358
26677	-0.000859479	0.451799
26716	-0.000935775	0.436157
26755	-0.00082133	0.42708
26794	-0.000802256	0.40922
26833	-0.000859479	0.396056
26872	-0.000745034	0.384599
26911	-0.000859479	0.38379
26950	-0.00108837	0.371224
26989	-0.000897627	0.361922
27028	-0.00072596	0.353719
27067	-0.000802256	0.353672
27106	-0.000935775	0.347137
27145	-0.000897627	0.34004
27184	-0.000954849	0.333997
27223	-0.00101207	0.331382
27262	-0.00103115	0.33136
27301	-0.000954849	0.324676
27340	-0.000916701	0.319558
27379	-0.000840404	0.315115
27418	-0.000916701	0.318156
27457	-0.000878553	0.311857
27496	-0.000935775	0.307173
27535	-0.000802256	0.302878
27574	-0.00106929	0.304929
27613	-0.000897627	0.300539
27652	-0.000878553	0.296168
27691	-0.000916701	0.292121
27730	-0.000668738	0.291408
27769	-0.000935775	0.291949
27808	-0.000992997	0.287184
27847	-0.000973923	0.283777
27886	-0.000802256	0.280785
27925	-0.000783182	0.283973
27964	-0.000878553	0.278797
28003	-0.000935775	0.275365
28042	-0.000935775	0.272177
28081	-0.00082133	0.274616
28120	-0.00101207	0.271373
28159	-0.000878553	0.26786
28198	-0.000878553	0.26477
28237	-0.000916701	0.265019
28276	-0.000973923	0.265057
28315	-0.000973923	0.261412
28354	-0.000840404	0.258693
28393	-0.00106929	0.256627
28432	-0.00082133	0.259419
28471	-0.000973923	0.254975
28510	-0.000916701	0.252362
28549	-0.000859479	0.249452
28588	-0.000973923	0.252052
28627	-0.000954849	0.248822
28666	-0.000802256	0.246053
28705	-0.000954849	0.243657
28744	-0.00082133	0.243749
28783	-0.000954849	0.243593
28822	1.49947	32.1632
28861	1.49947	13.9407
28900	1.49938	9.65064
28939	1.49959	7.85206
28978	1.49955	7.02619
29017	1.49938	6.52986
29056	1.4996	6.20377
29095	1.49941	5.92054
29134	1.49949	5.78678
29173	1.49955	5.68614
29212	1.4996	5.59796
29251	1.49957	5.47988
29290	1.49955	5.38987
29329	1.49955	5.3672
29368	1.49947	5.31161
29407	1.49962	5.25742
29446	1.49951	5.14272
29485	1.4996	5.13579
29524	1.49949	5.10744
29563	1.49951	5.07018
29602	1.49964	4.97266
29641	1.49936	4.94593
29680	1.49964	4.92584
29719	1.49957	4.85692
29758	1.49951	4.79817
29797	1.49959	4.72701
29836	1.49941	4.71107
29875	1.49947	4.67338
29914	1.49951	4.6224
29953	1.49966	4.52183
29992	1.49945	4.51496
30031	1.49955	4.47097
30070	1.49945	4.42347
30109	1.49953	4.31532
30148	1.49968	4.28551
30187	1.49938	4.25179
30226	1.49955	4.20479
30265	1.49955	4.11839
30304	1.49953	4.03476
30343	1.49943	4.00774
30382	1.49947	3.95495
30421	1.49951	3.89919
30460	1.49968	3.77989
30499	1.49957	3.75595
30538	1.49955	3.70417
30577	1.49957	3.64875
30616	-0.00101207	-2.24132
30655	-0.000859479	-0.349904
30694	-0.000840404	-0.0172803
30733	-0.000954849	0.0436583
30772	-0.00101207	0.0644216
30811	-0.000916701	0.0722599
30850	-0.000897627	0.07392
30889	-0.000897627	0.073752
30928	-0.00103115	0.073554
30967	-0.000935775	0.0747411
31006	-0.000992997	0.0737117
31045	-0.000859479	0.0724777
31084	-0.000840404	0.0711718
31123	-0.000840404	0.0729893
31162	-0.00101207	0.0718593
31201	-0.000992997	0.0708282
31240	-0.000935775	0.0695076
31279	-0.000878553	0.069989
31318	-0.000859479	0.0691799
31357	-0.000840404	0.0680346
31396	-0.000916701	0.0665437
31435	-0.000935775	0.0657484
31474	-0.000916701	0.0662772
31513	-0.000783182	0.0650095
31552	-0.000916701	0.0637666
31591	-0.000935775	0.0625405
31630	-0.00082133	0.0633995
31669	-0.000878553	0.0621415
31708	-0.000973923	0.0608895
31747	-0.000992997	0.0595255
31786	-0.000802256	0.0600863
31825	-0.000973923	0.0592204
31864	-0.000840404	0.0581109
31903	-0.000935775	0.0570054
31942	-0.000954849	0.0567122
31981	-0.000954849	0.056935
32020	-0.000687812	0.056008
32059	-0.000916701	0.0550723
32098	-0.000802256	0.0541377
32137	-0.000878553	0.0551502
32176	-0.000916701	0.0540284
32215	-0.000878553	0.0532648
32254	-0.000878553	0.0522325
32293	-0.000840404	0.0529245
32332	-0.000878553	0.0522418
32371	-0.000897627	0.0516033
32410	-0.000764108	0.0506951
32449	-0.000840404	0.050638
32488	-0.000935775	0.0509334
32527	-0.00101207	0.0502332
32566	-0.00108837	0.049436
32605	-0.00082133	0.0486493
32644	-0.00101207	0.0496394
32683	-0.000878553	0.0487952
32722	-0.000802256	0.0482085
32761	-0.000916701	0.0472822
32800	-0.000783182	0.0480665
32839	-0.000859479	0.0473975
32878	-0.000973923	0.0468465
32917	-0.000840404	0.0459578
32956	-0.00105022	0.0461
32995	-0.000935775	0.0461418
33034	-0.00105022	0.0455596
33073	-0.000802256	0.0449988
33112	-0.000935775	0.0445634
33151	-0.000954849	0.045426
33190	-0.000973923	0.0446639
33229	-0.000954849	0.0440315
33268	-0.000897627	0.043143
33307	-0.000764108	0.044013
33346	-0.000916701	0.0433613
33385	-0.000954849	0.0429521
33424	-0.000897627	0.0422363
33463	-0.000764108	0.0425044
33502	-0.00105022	0.0425756
33541	-0.000897627	0.0420802
33580	-0.000992997	0.0416317
33619	-0.000916701	0.0412565
33658	-0.000992997	0.0420023
33697	-0.000878553	0.0413169
33736	-0.000916701	0.0408701
33775	-0.000802256	0.0403156
33814	-0.000802256	0.0412439
33853	-0.000878553	0.0406403
33892	-0.000935775	0.0403221
33931	-0.000840404	0.0396869
33970	-0.000973923	0.0400777
34009	-0.000935775	0.0400127
34048	-0.000878553	0.0396814
34087	-0.000745034	0.0392028
34126	-0.000916701	0.0388564
34165	-0.00103115	0.0395557
34204	-0.000916701	0.0389447
34243	-0.000878553	0.0385454
34282	-0.00114559	0.0380241
34321	-0.000973923	0.0390072
34360	-0.000859479	0.038317
34399	-0.00101207	0.0379903
34438	-0.000916701	0.037421
34477	-0.000878553	0.0378622
34516	-0.000954849	0.0376863
34555	-0.000878553	0.0373905
34594	-0.00108837	0.0368343
34633	-0.000992997	0.036741
34672	-0.000973923	0.0373125
34711	-0.000802256	0.0367758
34750	-0.000954849	0.0363201
34789	-0.000802256	0.0358882
34828	-0.000935775	0.0369405
34867	-0.000954849	0.0362366
34906	-0.000897627	0.0358235
34945	-0.000840404	0.0353508
34984	-0.000859479	0.0371408
35023	-0.000973923	0.0368739
35062	-0.000992997	0.0365855
35101	-0.000973923	0.0361269
35140	-0.000935775	0.0359526
35179	-0.000783182	0.0365193
35218	-0.00082133	0.035992
35257	-0.000878553	0.0357036
35296	-0.000859479	0.035177
35335	-0.00106929	0.0361274
35374	-0.00101207	0.0353976
35413	-0.000859479	0.0350931
35452	-0.000802256	0.0346185
35491	-0.000954849	0.0351771
35530	-0.00082133	0.0350544
35569	-0.00082133	0.0346082
35608	-0.000783182	0.0341303
35647	-0.000954849	0.0340363
35686	-0.00105022	0.0345121
35725	-0.000935775	0.0339706
35764	-0.000916701	0.0335718
35803	-0.000859479	0.0332231
35842	-0.000878553	0.0340597
35881	-0.000973923	0.0333269
35920	-0.000859479	0.0330947
35959	-0.00106929	0.0326288
35998	-0.000859479	0.0332687
36037	-0.00082133	0.0328357
36076	-0.000840404	0.0326659
36115	-0.000954849	0.0322025
36154	-0.000935775	0.0321602
36193	-0.000992997	0.0324654
36232	-0.000897627	0.0320272
36271	-0.000935775	0.0316788
36310	-0.000897627	0.0314546
36349	-0.00114559	0.0322152
36388	-0.000992997	0.0315477
36427	-0.000859479	0.0312616
36466	-0.000859479	0.030965
36505	-0.00101207	0.0315861
36544	-0.000878553	0.0312467
36583	-0.00103115	0.0309634
36622	-0.000859479	0.0306693
36661	-0.000916701	0.0306649
36700	-0.000878553	0.0310164
36739	-0.000954849	0.0306046
36778	-0.00072596	0.0303296
36817	-0.00082133	0.0300588
36856	-0.000783182	0.0309191
36895	-0.000954849	0.0302766
36934	-0.00101207	0.0300237
36973	-0.000954849	0.0296719
37012	-0.00101207	0.0303959
37051	-0.000859479	0.0299618
37090	-0.000878553	0.0298411
37129	-0.000992997	0.0295326
37168	-0.000973923	0.0296262
37207	-0.00110744	0.0298006
37246	-0.000706886	0.0294099
37285	-0.000935775	0.0292439
37324	-0.00103115	0.0290099
37363	-0.000897627	0.0296971
37402	-0.000878553	0.029161
37441	-0.000954849	0.0287902
37480	-0.000973923	0.0283948
37519	-0.000764108	0.0291463
37558	-0.000897627	0.0286097
37597	-0.000802256	0.0284583
37636	-0.000840404	0.0281241
37675	-0.000859479	0.0283308
37714	-0.000878553	0.0283299
37753	-0.000992997	0.0279316
37792	-0.000935775	0.0276936
37831	-0.00103115	0.0275029
37870	-0.000916701	0.0281401
37909	-0.000859479	0.0275487
37948	-0.00082133	0.0273417
37987	-0.000935775	0.027056
38026	-0.000935775	0.0277438
38065	-0.000973923	0.0272637
38104	-0.00082133	0.0270219
38143	-0.00103115	0.026718
38182	-0.000840404	0.0270397
38221	-0.000897627	0.0269683
38260	-0.000973923	0.0266888
38299	-0.000916701	0.0264901
38338	-0.000764108	0.0263782
38377	-0.000897627	0.0269488
38416	-0.000916701	0.0263506
38455	-0.000973923	0.0261044
38494	-0.000764108	0.025849
38533	-0.000840404	0.0265272
38572	-0.000954849	0.0260579
38611	-0.000973923	0.0257542
38650	-0.000840404	0.0255541
38689	-0.00101207	0.0259515
38728	-0.000840404	0.0259322
38767	-0.00101207	0.0255937
38806	-0.000802256	0.0253219
38845	-0.000992997	0.0252253
38884	-0.000935775	0.0256838
38923	-0.000706886	0.0251468
38962	-0.000878553	0.0249376
39001	-0.000878553	0.024646
39040	-0.000840404	0.0253357
39079	-0.000897627	0.0247904
39118	-0.000897627	0.0245668
39157	-0.000859479	0.0243642
39196	-0.000916701	0.0247526
39235	-0.00106929	0.0245138
39274	-0.000897627	0.0241947
39313	-0.000802256	0.0239831
39352	-0.00101207	0.0239193
39391	-0.000992997	0.0243459
39430	-0.000954849	0.0238658
39469	-0.000954849	0.0236996
39508	-0.000954849	0.0235227
39547	-0.00101207	0.0242499
39586	-0.000973923	0.0237392
39625	-2.00089	-44.4455
39664	-2.00087	-21.6203
39703	-2.00091	-14.2156
39742	-2.00091	-10.6254
39781	-2.00089	-8.47568
39820	-2.00091	-7.03812
39859	-2.00087	-6.00524
39898	-2.00089	-5.25765
39937	-2.00084	-4.68974
39976	-2.00095	-4.21267
40015	-2.00101	-3.83581
40054	-2.0008	-3.55015
40093	-2.00089	-3.29287
40132	-2.00072	-3.07613
40171	-2.00078	-2.89619
40210	-2.00082	-2.74605
40249	-2.00095	-2.61185
40288	-2.00101	-2.49057
40327	-2.00087	-2.39139
40366	-2.00087	-2.29086
40405	-2.00084	-2.21318
40444	-2.00078	-2.14422
40483	-2.00078	-2.06623
40522	-0.000935775	4.75787
40561	-0.000973923	1.77585
40600	-0.00103115	1.14681
40639	-0.000897627	0.89707
40678	-0.000973923	0.762924
40717	-0.000954849	0.682936
40756	-0.000973923	0.62265
40795	-0.000859479	0.570341
40834	-0.00103115	0.529646
40873	-0.000954849	0.497062
40912	-0.000878553	0.47349
40951	-0.000954849	0.443981
40990	-0.000954849	0.420701
41029	-0.000954849	0.400155
41068	-0.000954849	0.389141
41107	-0.000897627	0.369545
41146	-0.000687812	0.353326
41185	-0.000878553	0.338715
41224	-0.000706886	0.32956
41263	-0.000878553	0.318611
41302	-0.000954849	0.306356
41341	-0.000840404	0.295856
41380	-0.000840404	0.287518
41419	-0.000916701	0.283245
41458	-0.000935775	0.272978
41497	-0.00082133	0.265023
41536	-0.00101207	0.257976
41575	-0.000897627	0.256483
41614	-0.000992997	0.24896
41653	-0.00110744	0.243074
41692	-0.000973923	0.237917
41731	-0.00103115	0.236058
41770	-0.000992997	0.232444
41809	-0.000973923	0.227542
41848	-0.000878553	0.223727
41887	-0.00108837	0.221039
41926	-0.000973923	0.220756
41965	-0.000783182	0.216618
42004	-0.000897627	0.213457
42043	-0.000897627	0.210658
42082	-0.000935775	0.212065
42121	-0.000935775	0.208355
42160	-0.00101207	0.205753
42199	-0.000878553	0.20314
42238	-0.000954849	0.203929
42277	-0.000973923	0.202001
42316	-0.000916701	0.19944
42355	-0.000802256	0.197294
42394	-0.000935775	0.196237
42433	-0.00101207	0.196999
42472	-0.000840404	0.194137
42511	-0.000916701	0.19213
42550	-0.00101207	0.190412
42589	-0.000764108	0.192082
42628	-0.000935775	0.189063
42667	-0.000897627	0.187251
42706	-0.000897627	0.185284
42745	-0.000859479	0.186285
42784	-0.00082133	0.184654
42823	-0.000973923	0.18268
42862	-0.000973923	0.180791
42901	-0.000935775	0.180347
42940	-0.000935775	0.180737
42979	-0.000954849	0.17831
43018	-0.000878553	0.176569
43057	-0.000916701	0.175117
43096	-0.00082133	0.176558
43135	-0.000916701	0.174182
43174	-0.000897627	0.172442
43213	1.4994	37.181
43252	1.49962	13.5428
43291	1.49968	9.07
43330	1.49941	7.38013
43369	1.49934	6.50535
43408	1.49957	5.98128
43447	1.49943	5.58589
43486	1.49953	5.35947
43525	1.49964	5.17368
43564	1.49928	5.01589
43603	1.49941	4.78706
43642	1.49949	4.68151
43681	1.49941	4.57702
43720	1.49955	4.47231
43759	1.49934	4.34259
43798	1.49949	4.23612
43837	1.49962	4.1633
43876	1.49945	4.08379
43915	1.4996	3.98762
43954	1.49949	3.8605
43993	1.49941	3.80319
44032	1.49943	3.73782
44071	1.49957	3.6634
44110	1.49951	3.5368
44149	1.49943	3.4804
44188	1.49947	3.4189
44227	1.49949	3.35029
44266	1.4994	3.24217
44305	1.49962	3.15892
44344	1.49955	3.10631
44383	1.49938	3.04106
44422	1.49949	2.96208
44461	1.49951	2.84915
44500	1.49964	2.80922
44539	1.49941	2.7505
44578	1.49941	2.68954
44617	1.49945	2.57218
44656	1.49938	2.52595
44695	1.49943	2.47594
44734	1.49945	2.42138
44773	1.4996	2.32657
44812	1.49953	2.2497
44851	1.49959	2.21122
44890	1.49945	2.16093
44929	1.49941	2.0991
44968	1.49949	2.00745
45007	-0.000954849	-4.02232
45046	-0.000878553	-0.399332
45085	-0.00106929	-0.111579
45124	-0.000859479	-0.0441981
45163	-0.000935775	-0.0184356
45202	-0.000954849	-0.00474164
45241	-0.000859479	0.00374268
45280	-0.000954849	0.0112977
45319	-0.000935775	0.0154824
45358	-0.00082133	0.0189357
45397	-0.000783182	0.0214756
45436	-0.000897627	0.0243843
45475	-0.000916701	0.026349
45514	-0.00082133	0.0277066
45553	-0.000916701	0.0287
45592	-0.000916701	0.0298908
45631	-0.00101207	0.0315217
45670	-0.000954849	0.0319518
45709	-0.000897627	0.0324691
45748	-0.000840404	0.0326135
45787	-0.00103115	0.0342723
45826	-0.000840404	0.0339671
45865	-0.00105022	0.0341918
45904	-0.000935775	0.0340663
45943	-0.000802256	0.0349112
45982	-0.000878553	0.0349309
46021	-0.000973923	0.0348236
46060	-0.000783182	0.034659
46099	-0.00110744	0.0348187
46138	-0.00082133	0.0355332
46177	-0.000954849	0.0350679
46216	-0.00082133	0.0349465
46255	-0.000897627	0.0346508
46294	-0.000897627	0.0356584
46333	-0.00106929	0.0351824
46372	-0.000973923	0.0349461
46411	-0.000935775	0.0344333
46450	-0.00105022	0.0351338
46489	-0.000935775	0.0348993
46528	-0.000935775	0.0346647
46567	-0.000840404	0.0343893
46606	-0.000783182	0.0345008
46645	-0.000954849	0.0349062
46684	-0.000916701	0.034478
46723	-0.000973923	0.0341409
46762	-0.00101207	0.0338722
46801	-0.00101207	0.0347099
46840	-0.000840404	0.0340152
46879	-0.000954849	0.0337623
46918	-0.000859479	0.0334864
46957	-0.00101207	0.0340079
46996	-0.000954849	0.0336326
47035	-0.000973923	0.0334416
47074	-0.000973923	0.0331885
47113	-0.000973923	0.0331932
47152	-0.000897627	0.0334143
47191	-0.000897627	0.0330395
47230	-0.000783182	0.0327457
47269	-0.00101207	0.0325593
47308	-0.000859479	0.0333005
47347	-0.000935775	0.0326298
47386	-0.000840404	0.0323854
47425	-0.000897627	0.0319855
47464	-0.000878553	0.0326545
47503	-0.000859479	0.0321465
47542	-0.000878553	0.0319093
47581	-0.000897627	0.0316578
47620	-0.000783182	0.0318221
47659	-0.00105022	0.0320448
47698	-0.000897627	0.0315908
47737	-0.000897627	0.0312733
47776	-0.000878553	0.031051
47815	-0.00082133	0.0315756
47854	-0.000840404	0.0311752
47893	-0.000935775	0.0308658
47932	-0.000783182	0.030481
47971	-0.00101207	0.0310888
48010	-0.000878553	0.0306078
48049	-0.000916701	0.0304369
48088	-0.000878553	0.0300265
48127	-0.000916701	0.0302919
48166	-0.000935775	0.0304671
48205	-0.000840404	0.0300325
48244	-0.00101207	0.0298709
48283	-0.000897627	0.0296126
48322	-0.000916701	0.0302355
48361	-0.000992997	0.0296125
48400	-0.000878553	0.0294177
48439	-0.000764108	0.0291132
48478	-0.000840404	0.0297168
48517	-0.000954849	0.0292954
48556	-0.000973923	0.0289968
48595	-0.000973923	0.0287923
48634	-0.000840404	0.0288943
48673	-0.000954849	0.0289729
48712	-0.00105022	0.028717
48751	-0.000783182	0.0284903
48790	-0.000954849	0.0283296
48829	-0.000973923	0.0289696
48868	-0.000992997	0.0284158
48907	-0.000897627	0.0281562
48946	-0.000935775	0.0279275
48985	-0.000859479	0.0286056
49024	-0.00106929	0.0279942
49063	-0.000935775	0.0278811
49102	-0.000878553	0.0275914
49141	-0.00103115	0.0278934
49180	-0.000916701	0.0277552
49219	-0.000706886	0.0274998
49258	-0.000840404	0.0273183
49297	-0.000935775	0.0271931
49336	-0.000916701	0.0277136
49375	-0.000973923	0.0271972
49414	-0.00103115	0.0270213
49453	-0.000840404	0.0267184
49492	-0.000954849	0.027414
49531	-0.000916701	0.0268253
49570	-0.000859479	0.026711
49609	-0.000668738	0.0264745
49648	-0.000897627	0.026703
49687	-0.00101207	0.0266379
49726	-0.00101207	0.0263959
49765	-0.00103115	0.02618
49804	-0.000954849	0.0260729
49843	-0.000878553	0.0266161
49882	-0.00108837	0.026117
49921	-0.000992997	0.0260084
49960	-0.000878553	0.0257072
49999	-0.000954849	0.0264288
50038	-0.000935775	0.0258415
50077	-0.000859479	0.0256113
50116	-0.000897627	0.0253381
50155	-0.00101207	0.025743
50194	-0.000992997	0.0255928
50233	-0.00101207	0.0253677
50272	-0.000859479	0.0251446
50311	-0.000992997	0.0251661
50350	-0.000897627	0.0255277
50389	-0.000916701	0.0251031
50428	-0.000916701	0.0249323
50467	-0.000859479	0.0247225
50506	-0.000916701	0.0253468
50545	-0.000802256	0.024814
50584	-0.00101207	0.024703
50623	-0.000935775	0.0244552
50662	-0.000840404	0.0248823
50701	-0.000973923	0.0245836
50740	-0.000935775	0.0244306
50779	-0.000840404	0.0242572
50818	-0.000859479	0.0242437
50857	-0.00101207	0.0247504
50896	-0.000764108	0.0242564
50935	-0.000783182	0.0240263
50974	-0.000916701	0.0239548
51013	-0.00101207	0.0245345
51052	-0.000935775	0.0240461
51091	-0.000859479	0.0238774
51130	-0.000916701	0.023634
51169	-0.000878553	0.024062
51208	-0.000840404	0.0237877
51247	-0.000973923	0.0235739
51286	-0.000840404	0.023384
51325	-0.000878553	0.0234155
51364	-0.000992997	0.0237309
51403	-0.000992997	0.0233232
51442	-0.000783182	0.0231284
51481	-0.00082133	0.0230121
51520	-0.000859479	0.0235391
51559	-0.000935775	0.0230776
51598	-0.000897627	0.0229454
51637	-0.000897627	0.0227693
51676	-0.000840404	0.0232095
51715	-0.000878553	0.022878
51754	-0.000840404	0.0227511
51793	-0.000935775	0.0225776
51832	-0.000916701	0.022706
51871	-0.000935775	0.0228509
51910	-0.000897627	0.0225328
51949	-0.000783182	0.0223407
51988	-0.000859479	0.0222757
52027	-0.000916701	0.0228036
52066	-0.00082133	0.0223214
52105	-0.000878553	0.0222262
52144	-0.000859479	0.0219604
52183	-0.000859479	0.0224426
52222	-0.000859479	0.0221151
52261	-0.000992997	0.0219781
52300	-0.000897627	0.0218009
52339	-0.00106929	0.0218652
52378	-0.000935775	0.0220541
52417	-0.00101207	0.0217746
52456	-0.000859479	0.021674
52495	-0.00101207	0.0214898
52534	-0.000935775	0.0220031
52573	-0.000878553	0.0214728
52612	-0.00082133	0.0213911
52651	-0.000859479	0.0212226
52690	-0.000878553	0.0217135
52729	-0.000954849	0.0213119
52768	-0.000935775	0.0211869
52807	-0.000897627	0.0210149
52846	-0.000859479	0.0211881
52885	-0.000916701	0.021276
52924	-0.000897627	0.0210109
52963	-0.00103115	0.0208399
53002	-0.000859479	0.020753
53041	-0.000992997	0.0212706
53080	-0.000897627	0.0209123
53119	-0.00106929	0.0207274
53158	-0.000859479	0.020533
53197	-0.000992997	0.0210162
53236	-0.000840404	0.0205757
53275	-0.000954849	0.0204585
53314	-0.000783182	0.0203406
53353	-0.000840404	0.0204886
53392	-0.000916701	0.0206104
53431	-0.000764108	0.0202978
53470	-0.000954849	0.0202283
53509	-0.000954849	0.0201606
53548	-0.000973923	0.0205945
53587	-0.000840404	0.0201966
53626	-0.000840404	0.0200519
53665	-0.000897627	0.0198811
53704	-0.000878553	0.0204074
53743	-0.000745034	0.0200221
53782	-0.000840404	0.0199351
53821	-0.000992997	0.0198195
53860	-0.000935775	0.0199873
53899	-0.000916701	0.0199955
53938	-0.000992997	0.0197821
53977	-0.000897627	0.0196946
54016	-2.00103	-46.0934
54055	-2.00099	-18.6424
54094	-2.00087	-11.7547
54133	-2.00078	-8.66943
54172	-2.00095	-6.89739
54211	-2.00091	-5.73518
54250	-2.00101	-4.91818
54289	-2.00087	-4.34263
54328	-2.00091	-3.87251
54367	-2.00095	-3.51687
54406	-2.00078	-3.24425
54445	-2.0007	-3.00066
54484	-2.00089	-2.80148
54523	-2.00099	-2.64266
54562	-2.00108	-2.50956
54601	-2.00099	-2.38296
54640	-2.00087	-2.27557
54679	-2.00084	-2.19069
54718	-2.00089	-2.10616
54757	-2.00089	-2.03152
54796	-2.00089	-1.97408
54835	-2.00076	-1.90552
54874	-2.0008	-1.84967
54913	-0.000973923	8.27447
54952	-0.000840404	2.00804
54991	-0.000973923	1.1603
55030	-0.000935775	0.863825
55069	-0.000973923	0.726713
55108	-0.00103115	0.628778
55147	-0.00082133	0.564418
55186	-0.000973923	0.516282
55225	-0.000859479	0.482419
55264	-0.000878553	0.449206
55303	-0.000859479	0.420681
55342	-0.000878553	0.396841
55381	-0.000916701	0.378488
55420	-0.000916701	0.362627
55459	-0.000954849	0.343997
55498	-0.000935775	0.328662
55537	-0.000916701	0.315158
55576	-0.000935775	0.307077
55615	-0.000916701	0.293224
55654	-0.000802256	0.28186
55693	-0.000954849	0.27177
55732	-0.000954849	0.266045
55771	-0.000973923	0.256672
55810	-0.000878553	0.24822
55849	-0.000802256	0.240597
55888	-0.000992997	0.235032
55927	-0.000840404	0.230031
55966	-0.000897627	0.222997
56005	-0.000954849	0.217131
56044	-0.00082133	0.21203
56083	-0.00101207	0.209863
56122	-0.00103115	0.203827
56161	-0.000878553	0.19901
56200	-0.00106929	0.194665
56239	-0.000973923	0.193334
56278	-0.000935775	0.188704
56317	-0.00101207	0.184837
56356	-0.000878553	0.181252
56395	-0.00101207	0.17931
56434	-0.000935775	0.177051
56473	-0.00082133	0.173572
56512	-0.000840404	0.170828
56551	-0.00082133	0.168537
56590	-0.000897627	0.168341
56629	-0.000973923	0.16498
56668	-0.000897627	0.162618
56707	-0.00082133	0.160538
56746	-0.00103115	0.160897
56785	-0.00101207	0.15826
56824	-0.000840404	0.156311
56863	-0.000764108	0.154484
56902	-0.000840404	0.154064
56941	-0.000954849	0.152886
56980	-0.000859479	0.151082
57019	-0.000878553	0.149448
57058	-0.000897627	0.148291
57097	-0.000954849	0.148534
57136	-0.000859479	0.14628
57175	-0.000973923	0.144816
57214	-0.000916701	0.143318
57253	-0.000954849	0.14399
57292	-0.000878553	0.1419
57331	-0.00101207	0.140383
57370	-0.00072596	0.139066
57409	-0.000935775	0.138828
57448	-0.00110744	0.137765
57487	-0.00106929	0.136234
57526	-0.00082133	0.134772
57565	-0.000859479	0.13389
57600	-0.000973923	0.132987