File: Data_31_Experiment/CA_273_020_minutes_C01.txt
time/s	Ewe/V	<I>/mA
1	1.49951	56.9209
11	1.49959	16.4032
21	1.49964	12.6903
31	1.49953	10.9397
41	1.49949	9.91813
51	1.49955	9.14122
61	1.49938	8.55834
71	1.49953	8.41078
81	1.49945	7.91996
91	1.49968	7.57312
101	1.49957	7.22911
111	1.49945	6.96003
121	1.49955	6.65734
131	1.49964	6.36993
141	1.49974	6.19311
151	1.49961	5.94818
161	1.49953	5.81165
171	1.49959	5.62142
181	1.49953	5.44159
191	1.49951	5.33162
201	1.49962	5.16094
211	1.49949	5.11335
221	1.49953	4.97089
231	1.49959	4.78267
241	1.49953	4.7485
251	1.49957	4.59297
261	1.49961	4.52693
271	1.49961	4.19188
281	1.49964	4.40359
291	1.49966	4.35667
301	1.49947	4.20536
311	1.49961	4.23718
321	1.49961	4.13482
331	1.49966	4.07384
341	1.49955	4.01863
351	1.4997	3.88392
361	1.49964	3.93854
371	1.49955	3.84026
381	1.4997	3.79916
391	1.49953	3.75513
401	1.49966	3.60969
411	1.49957	3.67682
421	1.49945	3.57866
431	1.49953	3.55011
441	1.49966	3.51417
451	1.49941	3.37761
461	1.49951	3.45853
471	1.49961	3.35869
481	1.49951	3.36144
491	1.49957	3.30782
501	1.4994	3.16681
511	1.49959	3.25553
521	1.49955	3.15184
531	1.4994	3.17804
541	1.49953	3.12296
551	1.49955	2.99642
561	1.49957	3.08959
571	1.49949	2.98123
581	1.49953	3.03381
591	1.49945	2.96574
601	1.49959	2.84837
611	1.49972	2.93928
621	1.49964	2.82559
631	1.49953	2.90477
641	1.49961	2.82785
651	1.49957	2.73066
661	1.49951	2.81513
671	1.49955	2.69939
681	1.49953	2.80299
691	1.49949	2.70285
701	1.49957	2.6543
711	1.49959	2.72814
721	1.49961	2.61453
731	1.49962	2.73949
741	1.49953	2.64827
751	1.49957	2.61163
761	1.49955	2.66676
771	1.49949	2.55707
781	1.49966	2.69003
791	1.49951	2.59578
801	1.49953	2.58914
811	1.49968	2.61983
821	1.49957	2.52159
831	1.4994	2.65218
841	1.49951	2.55774
851	1.49947	2.57652
861	1.49955	2.58513
871	1.49947	2.49782
881	1.49955	2.61827
891	1.49955	2.5266
901	1.49947	2.56056
911	1.49947	2.55274
921	1.49955	2.47634
931	1.49943	2.58527
941	1.49968	2.49643
951	1.49932	2.54103
961	1.4994	2.5214
971	1.49959	2.45465
981	1.49947	2.55085
991	1.49949	2.46732
1001	1.49961	2.51167
1011	1.49957	2.47918
1021	1.49949	2.42123
1031	1.49957	2.50949
1041	1.49959	2.43234
1051	1.49953	2.48612
1061	1.49968	2.44477
1071	1.49947	2.39602
1081	1.49951	2.47849
1091	1.49959	2.40675
1101	1.49962	2.46512
1111	1.49938	2.42184
1121	1.49945	2.38232
1131	1.49966	2.44368
1141	1.49959	2.3798
1151	1.4994	2.44017
1161	1.49961	2.39443
1171	1.49953	2.36352
1181	1.49966	2.41094
1191	1.49957	2.35335
1200.95	-0.000877742	-32.2828
1210.95	-0.000877742	-1.97618
1220.95	-0.000858668	-0.845364
1230.95	-0.000763297	-0.504466
1240.95	-0.000973113	-0.349305
1250.95	-0.000858668	-0.260977
1260.95	-0.000858668	-0.203902
1270.95	-0.000954038	-0.163257
1280.95	-0.000934964	-0.134706
1290.95	-0.000954038	-0.114479
1300.95	-0.000706075	-0.0989718
1310.95	-0.000877742	-0.0870868
1320.95	-0.000744223	-0.0774553
1330.95	-0.000877742	-0.0693067
1340.95	-0.00082052	-0.0626411
1350.95	-0.000801446	-0.0568195
1360.95	-0.000934964	-0.052034
1370.95	-0.000896816	-0.0480327
1380.95	-0.000934964	-0.0442345
1390.95	-0.000934964	-0.0409589
1400.95	-0.000858668	-0.0379437
1410.95	-0.000877742	-0.035349
1420.95	-0.00082052	-0.0329649
1430.95	-0.000973113	-0.0308707
1440.95	-0.000877742	-0.0288308
1450.95	-0.000782372	-0.0267906
1460.95	-0.000896816	-0.0253903
1470.95	-0.000839594	-0.023835
1480.95	-0.00091589	-0.0224821
1490.95	-0.00082052	-0.0211162
1500.95	-0.00091589	-0.0198461
1510.95	-0.000763297	-0.0188903
1520.95	-0.000896816	-0.0177531
1530.95	-0.00103033	-0.0168527
1540.95	-0.000858668	-0.0159678
1550.95	-0.000973113	-0.0149623
1560.95	-0.000896816	-0.0143278
1570.95	-0.000896816	-0.0133881
1580.95	-0.000763297	-0.0127171
1590.95	-0.000858668	-0.012138
1600.95	-0.000934964	-0.0114149
1610.95	-0.000839594	-0.0108301
1620.95	-0.00091589	-0.010206
1630.95	-0.000763297	-0.00985574
1640.95	-0.000839594	-0.00922791
1650.95	-0.000877742	-0.00873185
1660.95	-0.000782372	-0.00827546
1670.95	-0.000896816	-0.00771434
1680.95	-0.00091589	-0.0075151
1690.95	-0.000954038	-0.00717484
1700.95	-0.000763297	-0.00662641
1710.95	-0.000954038	-0.0063373
1720.95	-0.00108756	-0.00583631
1730.95	-0.000877742	-0.0056782
1740.95	-0.00082052	-0.00533599
1750.95	-0.00091589	-0.0049838
1760.95	-0.000896816	-0.0047982
1770.95	-0.000896816	-0.0042914
1780.95	-0.00091589	-0.00416805
1790.95	-0.000839594	-0.00392443
1800.95	-0.000763297	-0.00360258
1810.95	-0.000801446	-0.00337664
1820.95	-0.000763297	-0.00295905
1830.95	-0.00091589	-0.00297973
1840.95	-0.000839594	-0.00273069
1850.95	-0.000992187	-0.0024462
1860.95	-0.00101126	-0.00223367
1870.95	-0.00082052	-0.00187287
1880.95	-0.000782372	-0.00189071
1890.95	-0.000801446	-0.00167107
1900.95	-0.000763297	-0.00151829
1910.95	-0.000858668	-0.00122505
1920.95	-0.000896816	-0.000930604
1930.95	-0.00091589	-0.000974292
1940.95	-0.000858668	-0.000826178
1950.95	-0.000877742	-0.000710643
1960.95	-0.000954038	-0.000530081
1970.95	-0.00082052	-0.00020145
1980.95	-0.000934964	-0.000135915
1990.95	-0.00082052	-1.46144e-05
2000.95	-0.000858668	1.55423e-06
2010.95	-0.00091589	0.000157478
2020.95	-0.000954038	0.000506683
2030.95	-0.00101126	0.000403002
2040.95	-0.000896816	0.000563635
2050.95	-0.000839594	0.000637941
2060.95	-0.00091589	0.000840045
2070.95	-0.000801446	0.00109744
2080.95	-0.000896816	0.00105068
2090.95	-0.000839594	0.00110183
2100.95	-0.000877742	0.00117743
2110.95	-0.000973113	0.00122694
2120.95	-0.00101126	0.00161814
2130.95	-0.000858668	0.00156339
2140.95	-0.000706075	0.00157438
2150.95	-0.00091589	0.00171985
2160.95	-0.000858668	0.0017372
2170.95	-0.000839594	0.00218596
2180.95	-0.000725149	0.00191012
2190.95	-0.000934964	0.00202873
2200.95	-0.000877742	0.00223674
2210.95	-0.000801446	0.00212334
2220.95	-0.00091589	0.00261006
2230.95	-0.000877742	0.00244035
2240.95	-0.000858668	0.00247274
2250.95	-0.000896816	0.00247251
2260.95	-0.000858668	0.00263542
2270.95	-0.000973113	0.00290905
2280.95	-0.000992187	0.00272609
2290.95	-0.000744223	0.00279228
2300.95	-0.000896816	0.00279954
2310.95	-0.000858668	0.00297359
2320.95	-0.000839594	0.0031054
2330.95	-0.000839594	0.00306185
2340.95	-0.000782372	0.00322586
2350.95	-0.000954038	0.0031689
2360.95	-0.000839594	0.00326869
2370.95	-0.000896816	0.0035936
2380.95	-0.000934964	0.00356889
2390.95	-0.00091589	0.00365048
2400.95	-0.00091589	0.00363257
2410.95	-0.000782372	0.00364132
2420.95	-0.000801446	0.00375355
2430.95	-0.00091589	0.00377836
2440.95	-0.000839594	0.00402102
2450.95	-0.000763297	0.00380424
2460.95	-0.000858668	0.00390189
2470.95	-0.000763297	0.00406649
2480.95	-0.00082052	0.00403059
2490.95	-0.000782372	0.00415915
2500.95	-0.000858668	0.00414604
2510.95	-0.000954038	0.00413641
2520.95	-0.000801446	0.00432069
2530.95	-0.00091589	0.0042187
2540.95	-0.000839594	0.00438299
2550.95	-0.000801446	0.00432111
2560.95	-0.000839594	0.00441331
2570.95	-0.000801446	0.00445823
2580.95	-0.000934964	0.00443985
2590.95	-0.000934964	0.00459712
2600.95	-0.000763297	0.00448265
2610.95	-0.000896816	0.00456523
2620.95	-0.000839594	0.00464818
2630.95	-0.000858668	0.00460541
2640.95	-0.000782372	0.00471171
2650.95	-0.000973113	0.00472475
2660.95	-0.000725149	0.0047231
2670.95	-0.000992187	0.00481222
2680.95	-0.000896816	0.00476075
2690.95	-0.000839594	0.00491334
2700.95	-0.000934964	0.00484975
2710.95	-0.000782372	0.0049109
2720.95	-0.000896816	0.00493776
2730.95	-0.000858668	0.00495726
2740.95	-0.000954038	0.00507319
2750.95	-0.000801446	0.00500366
2760.95	-0.000801446	0.00502939
2770.95	-0.000896816	0.00507754
2780.95	-0.000896816	0.00511884
2790.95	-0.000858668	0.00530119
2800.95	-0.000934964	0.00508326
2810.95	-0.000839594	0.00516092
2820.95	-0.000725149	0.00525433
2830.95	-0.000763297	0.00518512
2840.95	-0.000782372	0.00549119
2850.95	-0.000839594	0.00520262
2860.95	-0.000896816	0.00524261
2870.95	-0.00082052	0.00528525
2880.95	-0.00091589	0.00529944
2890.95	-0.000896816	0.00550471
2900.95	-0.000992187	0.00533457
2910.95	-0.00082052	0.00533553
2920.95	-0.000934964	0.00543186
2930.95	-0.000896816	0.00542258
2940.95	-0.000858668	0.00560242
2950.95	-0.000877742	0.00548513
2960.95	-0.000858668	0.00545192
2970.95	-0.00091589	0.0055371
2980.95	-0.00091589	0.00549656
2990.95	-0.000954038	0.00574626
3000.95	-0.000896816	0.00561662
3010.95	-0.000992187	0.00562791
3020.95	-0.000858668	0.00554352
3030.95	-0.000839594	0.00559857
3040.95	-0.000877742	0.0057567
3050.95	-0.000858668	0.00566139
3060.95	-0.000801446	0.00569549
3070.95	-0.000763297	0.00559487
3080.95	-0.000896816	0.00567745
3090.95	-0.000782372	0.00592397
3100.95	-0.000877742	0.00568012
3110.95	-0.000877742	0.00575614
3120.95	-0.000877742	0.00568593
3130.95	-0.000763297	0.00570229
3140.95	-0.000839594	0.00602612
3150.95	-0.000839594	0.00572267
3160.95	-0.000934964	0.00584328
3170.95	-0.000801446	0.00575622
3180.95	-0.000896816	0.00573366
3190.95	-0.000877742	0.0059793
3200.95	-0.000992187	0.00585246
3210.95	-0.000896816	0.00585552
3220.95	-0.000725149	0.00582291
3230.95	-0.000877742	0.00585425
3240.95	-0.000801446	0.00602715
3250.95	-0.000896816	0.00595068
3260.95	-0.000954038	0.00597665
3270.95	-0.000954038	0.00592967
3280.95	-0.000934964	0.00583438
3290.95	-0.00091589	0.00604775
3300.95	-0.000839594	0.0060141
3310.95	-0.00103033	0.00607897
3320.95	-0.000896816	0.00601572
3330.95	-0.000839594	0.00599072
3340.95	-0.000973113	0.00614036
3350.95	-0.000877742	0.0060938
3360.95	-0.000877742	0.00608733
3370.95	-0.000744223	0.005997
3380.95	-0.000839594	0.0060334
3390.95	-0.00082052	0.00607036
3400.95	-0.000877742	0.00615056
3410.95	-0.00091589	0.00621367
3420.95	-0.00104941	0.00604581
3430.95	-0.000877742	0.00607656
3440.95	-0.000934964	0.00612874
3450.95	-0.000934964	0.00606701
3460.95	-0.000801446	0.00611922
3470.95	-0.00082052	0.0060969
3480.95	-0.000992187	0.00618925
3490.95	-0.000858668	0.0061854
3500.95	-0.000744223	0.0062
3510.95	-0.000954038	0.00625447
3520.95	-0.000934964	0.0061023
3530.95	-0.000877742	0.00624334
3540.95	-0.000839594	0.00622761
3550.95	-0.00101126	0.00620249
3560.95	-0.000839594	0.00627305
3570.95	-0.000858668	0.00620798
3580.95	-0.000839594	0.00622933
3590.95	-0.000992187	0.00623134
3600.95	-0.000896816	0.00618263
3610.95	-0.000992187	0.00640443
3620.95	-0.000687001	0.00624525
3630.95	-0.00082052	0.00625595
3640.95	-0.000992187	0.00625207
3650.95	-0.00082052	0.00626359
3660.95	-0.000934964	0.00644538
3670.95	-0.000858668	0.00628215
3680.95	-0.00082052	0.00625614
3690.95	-0.000839594	0.00625968
3700.95	-0.000858668	0.00625365
3710.95	-0.000877742	0.00655963
3720.95	-0.000839594	0.00631663
3730.95	-0.000934964	0.00630807
3740.95	-0.000801446	0.00626838
3750.95	-0.000877742	0.00634087
3760.95	-0.000934964	0.00648002
3770.95	-0.000839594	0.00627454
3780.95	-0.000896816	0.00633643
3790.95	-0.000954038	0.00627404
3800.95	-0.000896816	0.00628586
3810.95	-0.00104941	0.006569
3820.95	-0.000954038	0.00632038
3830.95	-0.000839594	0.00635591
3840.95	-0.000839594	0.00640347
3850.95	-0.000896816	0.00633378
3860.95	-0.000782372	0.00657024
3870.95	-0.000954038	0.00636339
3880.95	-0.000954038	0.00628395
3890.95	-0.000877742	0.0063611
3900.95	-0.000782372	0.00643769
3910.95	-0.000877742	0.00649986
3920.95	-0.00091589	0.00643527
3930.95	-0.000763297	0.00640093
3940.95	-0.00091589	0.00635535
3950.95	-0.000839594	0.00640614
3960.95	-0.000877742	0.0065441
3970.95	-0.000934964	0.00640108
3980.95	-0.000839594	0.00637343
3990.95	-0.000801446	0.00639376
4000.95	-0.000934964	0.0063991
4010.95	-0.000877742	0.006552
4020.95	-0.000801446	0.00644641
4030.95	-0.000801446	0.00642701
4040.95	-0.000801446	0.006395
4050.95	-0.000858668	0.00642212
4060.95	-0.000877742	0.00660026
4070.95	-0.000973113	0.00645346
4080.95	-0.000896816	0.00648261
4090.95	-0.000954038	0.00641333
4100.95	-0.00101126	0.00642222
4110.95	-0.000992187	0.00655847
4120.95	-0.000896816	0.00649725
4130.95	-0.000896816	0.00646904
4140.95	-0.000763297	0.00645605
4150.95	-0.000896816	0.00648976
4160.95	-0.000839594	0.00656445
4170.95	-0.000763297	0.00645548
4180.95	-0.000896816	0.00646843
4190.95	-0.000954038	0.00640619
4200.95	-0.000782372	0.00649118
4210.95	-0.00101126	0.00656618
4220.95	-0.000858668	0.00646048
4230.95	-0.000973113	0.00656013
4240.95	-0.000896816	0.00647963
4250.95	-0.000973113	0.00652276
4260.95	-0.00091589	0.00670248
4270.95	-0.00091589	0.00641224
4280.95	-0.000877742	0.0065606
4290.95	-0.000782372	0.00639824
4300.95	-0.000896816	0.00647434
4310.95	-0.000934964	0.00657698
4320.95	-0.00091589	0.00649814
4330.95	-0.000896816	0.00651668
4340.95	-0.000877742	0.00640719
4350.95	-0.000839594	0.00653077
4360.95	-0.000877742	0.00661169
4370.95	-0.00082052	0.00656552
4380.95	-0.00091589	0.00662367
4390.95	-0.000973113	0.00654201
4400.95	-0.000896816	0.00648982
4410.95	-0.00091589	0.00666636
4420.95	-0.000858668	0.00651394
4430.95	-0.000801446	0.00662704
4440.95	-0.00082052	0.00645928
4450.95	-0.000877742	0.0064351
4460.95	-0.000954038	0.00655745
4470.95	-0.000763297	0.00649937
4480.95	-0.000877742	0.00662288
4490.95	-0.00082052	0.00653056
4500.95	-0.00082052	0.00646643
4510.95	-0.000896816	0.00654359
4520.95	-0.000973113	0.00661305
4530.95	-0.000858668	0.00668447
4540.95	-0.000782372	0.0064785
4550.95	-0.000839594	0.00649973
4560.95	-0.000992187	0.00653199
4570.95	-0.000896816	0.00647637
4580.95	-0.00082052	0.0067534
4590.95	-0.000877742	0.00650794
4600.95	-0.000896816	0.00652357
4610.95	-0.000858668	0.00657193
4620.95	-0.000839594	0.00661835
4630.95	-0.000954038	0.00669124
4640.95	-0.000934964	0.0066099
4650.95	-0.000877742	0.0064878
4660.95	-0.000801446	0.00650824
4670.95	-0.000896816	0.00656131
4680.95	-0.000744223	0.00669456
4690.95	-0.000744223	0.00662506
4700.95	-0.000973113	0.00653683
4710.95	-0.00101126	0.00659923
4720.95	-0.000782372	0.00656997
4730.95	-0.000877742	0.00678524
4740.95	-0.000896816	0.00654373
4750.95	-0.000667927	0.00650842
4760.95	-0.000877742	0.00658206
4770.95	-0.00082052	0.00663421
4780.95	-0.000877742	0.00667102
4790.95	-0.000782372	0.00654541
4800.95	-0.00091589	0.00651855
4810.95	-0.00101126	0.00648737
4820.95	-0.000877742	0.00657142
4830.95	-0.000896816	0.0066787
4840.95	-0.000896816	0.00650172
4850.95	-0.000763297	0.00653017
4860.95	-0.000973113	0.00645808
4870.95	-0.000782372	0.00653737
4880.95	-0.000877742	0.00671408
4890.95	-0.000877742	0.00659306
4900.95	-0.000896816	0.00650826
4910.95	-0.000801446	0.00660186
4920.95	-0.000839594	0.00654295
4930.95	-0.000934964	0.00675345
4940.95	-0.000801446	0.00664982
4950.95	-0.00091589	0.00656846
4960.95	-0.000877742	0.00648591
4970.95	-0.000858668	0.00663384
4980.95	-0.00101126	0.00679368
4990.95	-0.000877742	0.00648565
5000.95	-0.000858668	0.00665882
5010.95	-0.000973113	0.00651071
5020.95	-0.000782372	0.00657695
5030.95	-0.000725149	0.0066945
5040.95	-0.000667927	0.00660983
5050.95	-0.000801446	0.00661771
5060.95	-0.000877742	0.00664405
5070.95	-0.000877742	0.0064714
5080.95	-0.000858668	0.00669031
5090.95	-0.000858668	0.00659589
5100.95	-0.00091589	0.00662494
5110.95	-0.000896816	0.00660615
5120.95	-0.000877742	0.00635526
5130.95	-0.000973113	0.00665696
5140.95	-0.000763297	0.00658108
5150.95	-0.000801446	0.00667083
5160.95	-0.000782372	0.00658288
5170.95	-0.000973113	0.00653435
5180.95	-0.000801446	0.00658393
5190.95	-0.000954038	0.00657352
5200.95	-0.000896816	0.00667802
5210.95	-0.000934964	0.00657487
5220.95	-0.00082052	0.0065873
5230.95	-0.000877742	0.00662002
5240.95	-0.00082052	0.00658374
5250.95	-0.000896816	0.00668499
5260.95	-0.000801446	0.00654239
5270.95	-0.00091589	0.00661631
5280.95	-0.000706075	0.00669706
5290.95	-0.00091589	0.00656066
5300.95	-0.00091589	0.00664483
5310.95	-0.000744223	0.00652328
5320.95	-0.000858668	0.00649771
5330.95	-0.000877742	0.00667869
5340.95	-0.000858668	0.00661457
5350.95	-0.000954038	0.00667678
5360.95	-0.000839594	0.0065854
5370.95	-0.000877742	0.00658662
5380.95	-0.000934964	0.00656566
5390.95	-0.000954038	0.00664184
5400.95	-0.000801446	0.00676314
5410.95	-0.00082052	0.00660015
5420.95	-0.000973113	0.00659215
5430.95	-0.00082052	0.00669483
5440.95	-0.00082052	0.00663137
5450.95	-0.000801446	0.00668532
5460.95	-0.000858668	0.00654772
5470.95	-0.000687001	0.00652234
5480.95	-0.000992187	0.00660212
5490.95	-0.000896816	0.00666322
5500.95	-0.000896816	0.00678842
5510.95	-0.000896816	0.00663111
5520.95	-0.000801446	0.00657012
5530.95	-0.00108756	0.006623
5540.95	-0.000877742	0.0065905
5550.95	-0.000896816	0.0067664
5560.95	-0.000954038	0.00667326
5570.95	-0.000858668	0.00662114
5580.95	-0.00106848	0.00662815
5590.95	-0.00091589	0.00663529
5600.95	-0.000896816	0.00674379
5610.95	-0.000858668	0.00663659
5620.95	-0.000858668	0.00657163
5630.95	-0.000877742	0.00665348
5640.95	-0.00082052	0.00663532
5650.95	-0.000801446	0.00676453
5660.95	-0.000858668	0.00667114
5670.95	-0.000839594	0.00663868
5680.95	-0.00091589	0.00662038
5690.95	-0.000896816	0.00662148
5700.95	-0.000896816	0.00675305
5710.95	-0.000954038	0.00662392
5720.95	-0.00091589	0.00658862
5730.95	-0.000973113	0.00665758
5740.95	-0.000877742	0.00662687
5750.95	-0.000763297	0.00683933
5760.95	-0.000801446	0.00665486
5770.95	-0.000744223	0.00660404
5780.95	-0.00082052	0.00664849
5790.95	-0.00101126	0.00658797
5800.95	-0.000858668	0.00670572
5810.95	-0.000934964	0.00659681
5820.95	-0.00091589	0.00664786
5830.95	-0.000954038	0.00662613
5840.95	-0.000858668	0.00660411
5850.95	-0.00082052	0.00677379
5860.95	-0.000896816	0.00667312
5870.95	-0.00091589	0.00662328
5880.95	-0.000973113	0.00662293
5890.95	-0.000763297	0.00666651
5900.95	-0.00103033	0.00673902
5910.95	-0.00091589	0.00658822
5920.95	-0.000954038	0.00664599
5930.95	-0.000896816	0.00661693
5940.95	-0.000763297	0.00662561
5950.95	-0.000934964	0.006754
5960.95	-0.00091589	0.00655898
5970.95	-0.00082052	0.00666428
5980.95	-0.000992187	0.00659521
5990.95	-0.000954038	0.00662252
6000.95	-0.000992187	0.00672917
6010.95	-0.000706075	0.00661626
6020.95	-0.00082052	0.00659742
6030.95	-0.000973113	0.00663916
6040.95	-0.000839594	0.00665138
6050.95	-0.000896816	0.00674343
6060.95	-0.000858668	0.00663472
6070.95	-0.000896816	0.0066612
6080.95	-0.000973113	0.00655183
6090.95	-0.000744223	0.00657818
6100.95	-0.000877742	0.00675089
6110.95	-0.000858668	0.00661066
6120.95	-0.000954038	0.00676644
6130.95	-0.000744223	0.00665012
6140.95	-0.00082052	0.00660701
6150.95	-0.00082052	0.00669187
6160.95	-0.000877742	0.00663402
6170.95	-0.00091589	0.00674327
6180.95	-0.000725149	0.00657588
6190.95	-0.00091589	0.00661247
6200.95	-0.000706075	0.00665428
6210.95	-0.000839594	0.0066213
6220.95	-0.000858668	0.00674807
6230.95	-0.000877742	0.00662613
6240.95	-0.000858668	0.00665111
6250.95	-0.000858668	0.00667507
6260.95	-0.000858668	0.00661216
6270.95	-0.000973113	0.00668262
6280.95	-0.000973113	0.00671763
6290.95	-0.000801446	0.00664807
6300.95	-0.00082052	0.00662696
6310.95	-0.000858668	0.00658472
6320.95	-0.000896816	0.00684077
6330.95	-0.00082052	0.00650619
6340.95	-0.000763297	0.00662388
6350.95	-0.000687001	0.00669672
6360.95	-0.000896816	0.00667998
6370.95	-0.000877742	0.00679684
6380.95	-0.00091589	0.00661703
6390.95	-0.000877742	0.00653191
6400.95	-0.000839594	0.00669436
6410.95	-0.000896816	0.00656556
6420.95	-0.00091589	0.00676532
6430.95	-0.000877742	0.00656579
6440.95	-0.000973113	0.00668096
6450.95	-0.000877742	0.00663659
6460.95	-0.000877742	0.00665941
6470.95	-0.000801446	0.00669
6480.95	-0.000782372	0.00660792
6490.95	-0.000839594	0.00651662
6500.95	-0.000858668	0.00662663
6510.95	-0.00103033	0.00662092
6520.95	-0.000934964	0.00673329
6530.95	-0.000839594	0.00655752
6540.95	-0.000839594	0.00660442
6550.95	-0.00091589	0.0065805
6560.95	-0.000973113	0.00668309
6570.95	-0.000782372	0.00672088
6580.95	-0.000782372	0.00656476
6590.95	-0.000973113	0.00649243
6600.95	-0.000782372	0.0065986
6610.95	-0.000839594	0.0066077
6620.95	-0.000896816	0.00669797
6630.95	-0.000763297	0.00655906
6640.95	-0.000934964	0.00654653
6650.95	-0.000896816	0.00655965
6660.95	-0.00082052	0.00661143
6670.95	-0.000934964	0.0066987
6680.95	-0.000934964	0.00654428
6690.95	-0.000763297	0.00658489
6700.95	-0.00091589	0.00657994
6710.95	-0.000801446	0.00649726
6720.95	-0.000744223	0.0067331
6730.95	-0.000839594	0.00668149
6740.95	-0.00104941	0.00660806
6750.95	-0.00082052	0.00657938
6760.95	-0.000896816	0.00654943
6770.95	-0.000877742	0.0067025
6780.95	-0.000839594	0.00665214
6790.95	-0.000934964	0.00654992
6800.95	-0.000839594	0.00665478
6810.95	-0.000782372	0.00651404
6820.95	-0.000896816	0.00673059
6830.95	-0.00091589	0.00653611
6840.95	-0.000877742	0.00651242
6850.95	-0.000896816	0.00649054
6860.95	-0.000858668	0.00655601
6870.95	-0.00091589	0.00657886
6880.95	-0.000896816	0.00658873
6890.95	-0.000839594	0.00656841
6900.95	-0.000801446	0.00652325
6910.95	-0.000839594	0.00653644
6920.95	-0.000877742	0.00660995
6930.95	-0.000782372	0.0065075
6940.95	-0.000801446	0.00665128
6950.95	-0.000801446	0.00652737
6960.95	-0.000858668	0.00652133
6970.95	-0.000877742	0.00669724
6980.95	-0.000839594	0.00657462
6990.95	-0.000954038	0.00656514
7000.95	-0.000877742	0.00655086
7010.95	-0.00082052	0.00653472
7020.95	-0.00091589	0.0065977
7030.95	-0.00082052	0.00649785
7040.95	-0.000992187	0.00656477
7050.95	-0.000839594	0.00648741
7060.95	-0.000973113	0.00655441
7070.95	-0.000954038	0.0066365
7080.95	-0.000934964	0.00645828
7090.95	-0.00091589	0.00661025
7100.95	-0.00103033	0.00644668
7110.95	-0.00091589	0.00653001
7120.95	-0.000782372	0.0065659
7130.95	-0.000858668	0.00656437
7140.95	-0.000896816	0.00659836
7150.95	-0.000954038	0.00643042
7160.95	-0.000896816	0.00646845
7170.95	-0.000934964	0.00657554
7180.95	-0.000839594	0.00648089
7190.95	-0.000706075	0.00665419
7200.95	-0.000973113	0.00647362
7210.95	-0.000858668	0.00642277
7220.95	-0.000992187	0.00655345
7230.95	-0.000934964	0.00646456
7240.95	-0.000801446	0.00661332
7250.95	-0.00082052	0.00642861
7260.95	-0.000839594	0.00645236
7270.95	-0.00082052	0.00648417
7280.95	-0.00082052	0.00652851
7290.95	-0.000858668	0.00660803
7300.95	-0.000877742	0.00639901
7310.95	-0.000858668	0.00649404
7320.95	-0.000839594	0.00649895
7330.95	-0.00103033	0.00645712
7340.95	-0.00106848	0.00656478
7350.95	-0.000973113	0.00647115
7360.95	-0.000877742	0.00642778
7370.95	-0.000877742	0.00646788
7380.95	-0.000839594	0.00644096
7390.95	-0.000877742	0.00670559
7400.95	-0.000801446	0.00650123
7410.95	-0.000858668	0.006361
7420.95	-0.000839594	0.00639432
7430.95	-0.000992187	0.00646815
7440.95	-0.000858668	0.00659472
7450.95	-0.000877742	0.00646247
7460.95	-0.00082052	0.00646865
7470.95	-0.00101126	0.00650795
7480.95	-0.000992187	0.00648034
7490.95	-0.000858668	0.00657859
7500.95	-0.000934964	0.00645791
7510.95	-0.000954038	0.00645892
7520.95	-0.000782372	0.00644166
7530.95	-0.000858668	0.006513
7540.95	-0.000782372	0.00666545
7550.95	-0.000877742	0.00642573
7560.95	-0.000954038	0.00639704
7570.95	-0.000934964	0.00641463
7580.95	-0.000877742	0.00642907
7590.95	-0.00091589	0.00657982
7600.95	-0.000896816	0.00645494
7610.95	-0.000896816	0.00648417
7620.95	-0.000934964	0.0063771
7630.95	-0.000973113	0.00640072
7640.95	-0.00082052	0.00653803
7650.95	-0.000839594	0.00648432
7660.95	-0.000763297	0.00641761
7670.95	-0.000839594	0.00641719
7680.95	-0.00082052	0.00638302
7690.95	-0.000744223	0.00651412
7700.95	-0.000763297	0.00642227
7710.95	-0.000763297	0.00645113
7720.95	-0.000839594	0.00640736
7730.95	-0.000877742	0.00642841
7740.95	-0.000896816	0.00651653
7750.95	-0.000992187	0.00634996
7760.95	-0.000763297	0.00645235
7770.95	-0.000877742	0.00636569
7780.95	-0.000763297	0.00634904
7790.95	-0.000877742	0.0065173
7800.95	-0.000839594	0.00635839
7810.95	-0.000877742	0.00643747
7820.95	-0.000934964	0.0063482
7830.95	-0.000801446	0.00632221
7840.95	-0.000839594	0.00648219
7850.95	-0.000896816	0.00633459
7860.95	-0.000992187	0.00640988
7870.95	-0.000954038	0.00635175
7880.95	-0.000858668	0.00634291
7890.95	-0.000744223	0.00643698
7900.95	-0.000896816	0.00637216
7910.95	-0.00082052	0.00644421
7920.95	-0.000877742	0.0063732
7930.95	-0.000896816	0.00631378
7940.95	-0.00091589	0.00644435
7950.95	-0.000782372	0.00643264
7960.95	-0.00082052	0.00639965
7970.95	-0.000801446	0.00635029
7980.95	-0.00103033	0.00635197
7990.95	-0.00091589	0.00642487
8000.95	-0.000992187	0.00641499
8010.95	-0.000725149	0.00647266
8020.95	-0.000973113	0.00637675
8030.95	-0.00091589	0.0062482
8040.95	-0.000934964	0.0064472
8050.95	-0.000992187	0.00634949
8060.95	-0.00091589	0.00642345
8070.95	-0.00091589	0.00631303
8080.95	-0.00082052	0.00627769
8090.95	-0.000954038	0.00633899
8100.95	-0.00101126	0.00635642
8110.95	-0.000763297	0.00643791
8120.95	-0.00091589	0.00630359
8130.95	-0.00082052	0.00633826
8140.95	-0.000801446	0.0063993
8150.95	-0.000877742	0.00638169
8160.95	-0.000839594	0.00643294
8170.95	-0.00091589	0.00633629
8180.95	-0.000839594	0.00629302
8190.95	-0.00082052	0.00631597
8200.95	-0.000725149	0.00628317
8210.95	-0.000782372	0.00646328
8220.95	-0.000858668	0.00636439
8230.95	-0.00082052	0.00627847
8240.95	-0.000744223	0.00628012
8250.95	-0.000839594	0.0063187
8260.95	-0.000896816	0.00639433
8270.95	-0.000801446	0.00631539
8280.95	-0.000954038	0.00625556
8290.95	-0.000954038	0.00634996
8300.95	-0.000858668	0.00637069
8310.95	-0.000877742	0.00646405
8320.95	-0.000839594	0.00628762
8330.95	-0.000706075	0.00625417
8340.95	-0.000954038	0.00631812
8350.95	-0.000801446	0.00625471
8360.95	-0.000782372	0.0063962
8370.95	-0.000954038	0.00628227
8380.95	-0.00082052	0.00625444
8390.95	-0.000858668	0.00639489
8400.95	-0.00101126	0.00625081
8410.95	-0.000877742	0.00643572
8420.95	-0.000934964	0.00627473
8430.95	-0.000858668	0.006277
8440.95	-0.000877742	0.00631922
8450.95	-0.00082052	0.00625618
8460.95	-0.00091589	0.00644011
8470.95	-0.000839594	0.00626976
8480.95	-0.000934964	0.00628461
8490.95	-0.000858668	0.00625018
8500.95	-0.000896816	0.00627996
8510.95	-0.000934964	0.00643204
8520.95	-0.000801446	0.00626311
8530.95	-0.000706075	0.00631143
8540.95	-0.000858668	0.00624184
8550.95	-0.000877742	0.00624822
8560.95	-0.00091589	0.00635978
8570.95	-0.000934964	0.00621908
8580.95	-0.000706075	0.00626675
8590.95	-0.00091589	0.00624847
8600.95	-0.000877742	0.00622945
8610.95	-0.00091589	0.00635183
8620.95	-0.000839594	0.00624079
8630.95	-0.000877742	0.00626318
8640.95	-0.00110663	0.00626591
8650.95	-0.000858668	0.00624093
8660.95	-0.000896816	0.0063464
8670.95	-0.000858668	0.00620554
8680.95	-0.000954038	0.00633036
8690.95	-0.00082052	0.00628576
8700.95	-0.000934964	0.00624459
8710.95	-0.000877742	0.00626305
8720.95	-0.000992187	0.00624682
8730.95	-0.000954038	0.00631423
8740.95	-0.000992187	0.00622318
8750.95	-0.00082052	0.00624088
8760.95	-0.000763297	0.00628064
8770.95	-0.000877742	0.00625542
8780.95	-0.000934964	0.00630206
8790.95	-0.000954038	0.00620103
8800.95	-0.000782372	0.00624309
8810.95	-0.000896816	0.00624574
8820.95	-0.000934964	0.00623814
8830.95	-0.000877742	0.00628694
8840.95	-0.00082052	0.00623971
8850.95	-0.000839594	0.00624215
8860.95	-0.000877742	0.00626516
8870.95	-0.000877742	0.00621514
8880.95	-0.00082052	0.00640103
8890.95	-0.00101126	0.00624919
8900.95	-0.000877742	0.00618384
8910.95	-0.000934964	0.00622469
8920.95	-0.000992187	0.00624736
8930.95	-0.00103033	0.00626184
8940.95	-0.000973113	0.00620994
8950.95	-0.000954038	0.00623057
8960.95	-0.000954038	0.00619176
8970.95	-0.00103033	0.00623587
8980.95	-0.000954038	0.00629961
8990.95	-0.000877742	0.00622185
9000.95	-0.000877742	0.00616364
9010.95	-0.000973113	0.00621959
9020.95	-0.000877742	0.0061988
9030.95	-0.000877742	0.00625257
9040.95	-0.00082052	0.00623415
9050.95	-0.000896816	0.00622065
9060.95	-0.000934964	0.00616004
9070.95	-0.000896816	0.0062188
9080.95	-0.000896816	0.00627428
9090.95	-0.00082052	0.00621839
9100.95	-0.000954038	0.00623964
9110.95	-0.000858668	0.00622775
9120.95	-0.000763297	0.00621119
9130.95	-0.000801446	0.00623672
9140.95	-0.000858668	0.00608374
9150.95	-0.000839594	0.00611469
9160.95	-0.000896816	0.00617219
9170.95	-0.000801446	0.00615882
9180.95	-0.00101126	0.00624721
9190.95	-0.000934964	0.00617774
9200.95	-0.000858668	0.00612152
9210.95	-0.00091589	0.00615565
9220.95	-0.000858668	0.00613563
9230.95	-0.000877742	0.00624728
9240.95	-0.000782372	0.00613343
9250.95	-0.000744223	0.00621376
9260.95	-0.00101126	0.00611155
9270.95	-0.00082052	0.00614643
9280.95	-0.00082052	0.00624494
9290.95	-0.00101126	0.00615615
9300.95	-0.000858668	0.00616985
9310.95	-0.000801446	0.0061712
9320.95	-0.000858668	0.00613609
9330.95	-0.000896816	0.00624893
9340.95	-0.00091589	0.00613817
9350.95	-0.000858668	0.00615134
9360.95	-0.000973113	0.00612966
9370.95	-0.000858668	0.00611373
9380.95	-0.000725149	0.00622992
9390.95	-0.000877742	0.00611836
9400.95	-0.000858668	0.00616317
9410.95	-0.000992187	0.00613216
9420.95	-0.000801446	0.00610553
9430.95	-0.000801446	0.00620755
9440.95	-0.000877742	0.00611745
9450.95	-0.000858668	0.00616001
9460.95	-0.000839594	0.00604971
9470.95	-0.000801446	0.0060596
9480.95	-0.000877742	0.00625017
9490.95	-0.000877742	0.00617626
9500.95	-0.000954038	0.00614427
9510.95	-0.000839594	0.00614338
9520.95	-0.000992187	0.00599772
9530.95	-0.000934964	0.00619116
9540.95	-0.000992187	0.00600209
9550.95	-0.000954038	0.00605331
9560.95	-0.000782372	0.00602063
9570.95	-0.000896816	0.00600916
9580.95	-0.00082052	0.00619093
9590.95	-0.000839594	0.00611837
9600.95	-0.000706075	0.00616052
9610.95	-0.00101126	0.0061345
9620.95	-0.000858668	0.00607927
9630.95	-0.000801446	0.00613071
9640.95	-0.000973113	0.0061288
9650.95	-0.00091589	0.00615601
9660.95	-0.00091589	0.00605542
9670.95	-0.000992187	0.00613856
9680.95	-0.00091589	0.00618988
9690.95	-0.00101126	0.00606481
9700.95	-0.00091589	0.00613438
9710.95	-0.000858668	0.00604225
9720.95	-0.00101126	0.00598176
9730.95	-0.000934964	0.00607687
9740.95	-0.00101126	0.00601477
9750.95	-0.000934964	0.00616522
9760.95	-0.000896816	0.00606464
9770.95	-0.00082052	0.00599017
9780.95	-0.000896816	0.00610397
9790.95	-0.00101126	0.00613266
9800.95	-0.000877742	0.00615704
9810.95	-0.000954038	0.00600351
9820.95	-0.000801446	0.00607432
9830.95	-0.000877742	0.00610291
9840.95	-0.00082052	0.00601342
9850.95	-0.000954038	0.0061442
9860.95	-0.00091589	0.00602717
9870.95	-0.000706075	0.0060209
9880.95	-0.00091589	0.00609996
9890.95	-0.00091589	0.00607413
9900.95	-0.000934964	0.00613975
9910.95	-0.000877742	0.00591032
9920.95	-0.000782372	0.00598636
9930.95	-0.00082052	0.00610972
9940.95	-0.000782372	0.00606841
9950.95	-0.000954038	0.00618893
9960.95	-0.000896816	0.00602168
9970.95	-0.000973113	0.00607144
9980.95	-0.000858668	0.00607968
9990.95	-0.000839594	0.00604904
10001	-0.000801446	0.00613287
10011	-0.000725149	0.00598832
10021	-0.00091589	0.00595048
10031	-0.000782372	0.00602227
10041	-0.000839594	0.00592929
10051	-0.000877742	0.00622133
10061	-0.000801446	0.00602472
10071	-0.000858668	0.00595309
10081	-0.000973113	0.00599644
10091	-0.00082052	0.00609276
10101	-0.000954038	0.00615205
10111	-0.000782372	0.00599093
10121	-0.000858668	0.0060182
10131	-0.000973113	0.006007
10141	-0.000934964	0.00597777
10151	-0.00101126	0.00606468
10161	-0.000973113	0.00597363
10171	-0.000877742	0.00594071
10181	-0.00103033	0.00601919
10191	-0.000782372	0.00600286
10201	-2.00097	-92.044
10211	-2.00084	-42.1329
10221	-2.00087	-27.2114
10231	-2.00089	-19.8187
10241	-2.00101	-15.7614
10251	-2.00076	-13.1131
10261	-2.00089	-11.2797
10271	-2.00078	-9.99163
10281	-2.00089	-8.95628
10291	-2.00066	-8.1878
10301	-2.00082	-7.55402
10311	-2.00068	-6.99045
10321	-2.00076	-6.5872
10331	-2.00101	-6.20102
10341	-2.00078	-5.89135
10351	-2.00082	-5.61306
10361	-2.00085	-5.37131
10371	-2.00089	-5.16892
10381	-2.00076	-4.96617
10391	-2.00074	-4.8168
10401	-2.00074	-4.70105
10411	-2.00085	-4.56567
10421	-2.0007	-4.46633
10431	-2.0008	-4.34876
10441	-2.00084	-4.23294
10451	-2.00082	-4.13171
10461	-2.00082	-4.04062
10471	-2.00082	-3.96029
10481	-2.00076	-3.8751
10491	-2.00085	-3.80109
10501	-2.00066	-3.73567
10511	-2.00085	-3.6541
10521	-2.00089	-3.61278
10531	-2.00085	-3.55437
10541	-2.00076	-3.51892
10551	-2.00082	-3.4777
10561	-2.00076	-3.435
10571	-2.00087	-3.37302
10581	-2.00076	-3.32809
10591	-2.00078	-3.29202
10601	-2.00072	-3.25435
10611	-2.00074	-3.20123
10621	-2.00072	-3.17506
10631	-2.00089	-3.14437
10641	-2.00085	-3.11617
10651	-2.00085	-3.08704
10661	-2.00082	-3.04948
10671	-2.00087	-3.05178
10681	-2.00084	-3.02814
10691	-2.00095	-2.99889
10701	-2.00093	-2.96395
10711	-2.00074	-2.9258
10721	-2.00089	-2.91089
10731	-2.00078	-2.89113
10741	-2.00072	-2.87245
10751	-2.00084	-2.84022
10761	-2.00082	-2.83259
10771	-2.00087	-2.82065
10781	-2.00082	-2.80132
10791	-2.00087	-2.78551
10801	-2.00078	-2.78393
10811	-2.00084	-2.76887
10821	-2.00078	-2.75328
10831	-2.00068	-2.72712
10841	-2.00084	-2.70041
10851	-2.00087	-2.69499
10861	-2.00068	-2.68403
10871	-2.00085	-2.67464
10881	-2.0008	-2.67058
10891	-2.00087	-2.65799
10901	-2.00085	-2.64542
10911	-2.00076	-2.6336
10921	-2.00091	-2.60489
10931	-2.00072	-2.60568
10941	-2.00087	-2.61957
10951	-2.00087	-2.61428
10961	-2.00072	-2.5871
10971	-2.00085	-2.57825
10981	-2.00068	-2.56493
10991	-2.00072	-2.55597
11001	-2.00078	-2.54612
11011	-2.00082	-2.53101
11021	-2.0008	-2.50836
11031	-2.00078	-2.51357
11041	-2.00091	-2.50876
11051	-2.00084	-2.50306
11061	-2.00072	-2.51065
11071	-2.00078	-2.51202
11081	-2.00084	-2.50247
11091	-2.00082	-2.48047
11101	-0.000954038	104.558
11111	-0.000934964	9.03258
11121	-0.000896816	3.78866
11131	-0.000801446	2.28805
11141	-0.000839594	1.63387
11151	-0.000896816	1.26677
11161	-0.00091589	1.03998
11171	-0.000839594	0.885789
11181	-0.000877742	0.770963
11191	-0.000858668	0.686479
11201	-0.000896816	0.617377
11211	-0.000763297	0.563662
11221	-0.000763297	0.519967
11231	-0.00091589	0.479484
11241	-0.000801446	0.448928
11251	-0.00104941	0.420997
11261	-0.00091589	0.39786
11271	-0.00082052	0.377817
11281	-0.000896816	0.359306
11291	-0.000934964	0.343777
11301	-0.000763297	0.328831
11311	-0.000839594	0.316104
11321	-0.000858668	0.304988
11331	-0.000896816	0.294028
11341	-0.000877742	0.284837
11351	-0.000801446	0.275391
11361	-0.000839594	0.267589
11371	-0.000954038	0.260386
11381	-0.000896816	0.253269
11391	-0.00106848	0.247218
11401	-0.000782372	0.240823
11411	-0.000782372	0.235324
11421	-0.000839594	0.230298
11431	-0.000782372	0.225349
11441	-0.00082052	0.22108
11451	-0.000839594	0.216198
11461	-0.000706075	0.212205
11471	-0.000896816	0.208468
11481	-0.000839594	0.204758
11491	-0.000858668	0.201547
11501	-0.00101126	0.197829
11511	-0.000877742	0.194732
11521	-0.00091589	0.19187
11531	-0.00091589	0.18879
11541	-0.00082052	0.186386
11551	-0.000877742	0.183205
11561	-0.000877742	0.180721
11571	-0.00082052	0.17829
11581	-0.000877742	0.175921
11591	-0.000934964	0.174099
11601	-0.00091589	0.171399
11611	-0.000858668	0.169306
11621	-0.000992187	0.167263
11631	-0.000896816	0.165271
11641	-0.000896816	0.163864
11651	-0.000992187	0.161436
11661	-0.00091589	0.159723
11671	-0.000934964	0.15809
11681	-0.000839594	0.156359
11691	-0.00103033	0.155143
11701	-0.000934964	0.152989
11711	-0.00082052	0.151575
11721	-0.000687001	0.150038
11731	-0.000839594	0.148553
11741	-0.000839594	0.147553
11751	-0.000858668	0.145734
11761	-0.00082052	0.14446
11771	-0.00091589	0.143047
11781	-0.000896816	0.141833
11791	-0.000801446	0.140927
11801	-0.000877742	0.139329
11811	-0.000782372	0.138166
11821	-0.000896816	0.136829
11831	-0.000801446	0.135829
11841	-0.000973113	0.135021
11851	-0.000858668	0.133696
11861	-0.000744223	0.132628
11871	-0.000954038	0.131495
11881	-0.000858668	0.130419
11891	-0.000839594	0.12984
11901	-0.000896816	0.128419
11911	-0.00082052	0.127536
11921	-0.000877742	0.126424
11931	-0.000877742	0.125579
11941	-0.00091589	0.125035
11951	-0.00091589	0.123748
11961	-0.000877742	0.122797
11971	-0.00091589	0.121917
11981	-0.00082052	0.121158
11991	-0.00091589	0.120578
12001	-0.000801446	0.11939
12011	-0.000992187	0.118691
12021	-0.000973113	0.117838
12031	-0.000877742	0.117073
12041	-0.000782372	0.116689
12051	-0.000954038	0.115503
12061	-0.000763297	0.114902
12071	-0.00091589	0.114085
12081	-0.00082052	0.11331
12091	-0.000801446	0.112934
12101	-0.000896816	0.111922
12111	-0.000858668	0.111324
12121	-0.000782372	0.110433
12131	-0.000934964	0.109859
12141	-0.000858668	0.109395
12151	-0.000839594	0.108497
12161	-0.000858668	0.108019
12171	-0.000896816	0.107203
12181	-0.000877742	0.10667
12191	-0.000973113	0.106272
12201	-0.000992187	0.105493
12211	-0.000839594	0.104946
12221	-0.00082052	0.104074
12231	-0.00091589	0.10364
12241	-0.000877742	0.103253
12251	-0.00082052	0.102559
12261	-0.000839594	0.102166
12271	-0.000877742	0.101441
12281	-0.000725149	0.100857
12291	-0.000782372	0.100507
12301	-0.000763297	0.0998067
12311	-0.000667927	0.0994912
12321	-0.000954038	0.0986868
12331	-0.000934964	0.0982266
12341	-0.00082052	0.0979176
12351	-0.000896816	0.0974107
12361	-0.00082052	0.0971827
12371	-0.000801446	0.0964741
12381	-0.000896816	0.0957592
12391	-0.00091589	0.0956417
12401	-0.000877742	0.0951011
12411	-0.000801446	0.0948107
12421	-0.000954038	0.094117
12431	-0.000934964	0.0936128
12441	-0.000954038	0.0933711
12451	-0.00091589	0.092682
12461	-0.000992187	0.0925957
12471	-0.000954038	0.09191
12481	-0.000801446	0.0914967
12491	-0.000877742	0.0911019
12501	-0.000782372	0.0907415
12511	-0.000858668	0.0906696
12521	-0.000973113	0.0898934
12531	-0.000973113	0.089547
12541	-0.000934964	0.0893159
12551	-0.00091589	0.0888126
12561	-0.000877742	0.0887583
12571	-0.000782372	0.0879783
12581	-0.000877742	0.0876894
12591	-0.000706075	0.0873654
12601	-0.000896816	0.0869254
12611	-0.00091589	0.0868642
12621	-0.000877742	0.0862107
12631	-0.000877742	0.0859805
12641	-0.000763297	0.0855414
12651	-0.000877742	0.0852794
12661	-0.000801446	0.0851882
12671	-0.00091589	0.0845502
12681	-0.000839594	0.084209
12691	-0.000877742	0.0839003
12701	-0.00101126	0.0834861
12711	-0.000763297	0.0836718
12721	-0.000858668	0.0829916
12731	-0.000725149	0.0826894
12741	-0.000896816	0.0824155
12751	-0.00082052	0.0820803
12761	-0.000877742	0.0820237
12771	-0.000801446	0.081468
12781	-0.000954038	0.0812007
12791	-0.000934964	0.0809189
12801	-0.00101126	0.0805431
12811	-0.000934964	0.0806466
12821	-0.000934964	0.0800326
12831	-0.00106848	0.0797854
12841	-0.000782372	0.0795222
12851	-0.000877742	0.0791682
12861	-0.000992187	0.079144
12871	-0.000763297	0.0786827
12881	-0.000839594	0.0784693
12891	-0.000934964	0.078237
12901	-0.000801446	0.0779901
12911	-0.000877742	0.0779987
12921	-0.000801446	0.0774592
12931	-0.000877742	0.0772788
12941	-0.000858668	0.0768678
12951	-0.000744223	0.0767579
12961	-0.000782372	0.0767906
12971	-0.000782372	0.0761907
12981	-0.000858668	0.0760016
12991	-0.000801446	0.075681
13001	-0.00082052	0.0753985
13011	-0.000839594	0.0755901
13021	-0.000801446	0.0750108
13031	-0.000954038	0.0748846
13041	-0.000877742	0.0746034
13051	-0.000954038	0.0743657
13061	-0.000973113	0.0742605
13071	-0.000934964	0.0739258
13081	-0.000801446	0.0737632
13091	-0.00082052	0.073459
13101	-0.000839594	0.0733596
13111	-0.000954038	0.073272
13121	-0.000687001	0.0728792
13131	-0.000934964	0.0727559
13141	-0.000706075	0.0723588
13151	-0.00091589	0.0722084
13161	-0.000973113	0.0722085
13171	-0.00103033	0.0718547
13181	-0.000877742	0.0718159
13191	-0.000763297	0.0714696
13201	-0.000896816	0.0713373
13211	-0.000763297	0.071346
13221	-0.000782372	0.070951
13231	-0.00103033	0.0709143
13241	-0.000954038	0.0705287
13251	-0.000839594	0.070278
13261	-0.000954038	0.0702847
13271	-0.000782372	0.0700478
13281	-0.000801446	0.0700122
13291	-0.000839594	0.0696814
13301	-0.000896816	0.0693285
13311	-0.000896816	0.0693983
13321	-0.000896816	0.0691999
13331	-0.000801446	0.0691517
13341	-0.000877742	0.0686428
13351	-0.00091589	0.0687265
13361	-0.000877742	0.0686222
13371	-0.000954038	0.0681349
13381	-0.00091589	0.0683384
13391	-0.000992187	0.0673989
13401	-0.000801446	0.0678013
13411	-0.000877742	0.067687
13421	-0.000858668	0.0673169
13431	-0.000839594	0.0673263
13441	-0.00091589	0.0671078
13451	-0.000782372	0.0670844
13461	-0.000839594	0.0669415
13471	-0.00091589	0.0667393
13481	-0.000877742	0.0668199
13491	-0.000782372	0.0663435
13501	-0.000877742	0.0662472
13511	-0.000877742	0.0660215
13521	-0.000839594	0.0661012
13531	-0.000954038	0.0661333
13541	-0.00082052	0.0657267
13551	-0.000801446	0.0655268
13561	-0.000858668	0.0654447
13571	-0.000687001	0.0651853
13581	-0.000896816	0.0652293
13591	-0.000858668	0.0649155
13601	-0.000839594	0.0647641
13611	-0.000858668	0.0646181
13621	-0.00091589	0.0644874
13631	-0.000877742	0.0645854
13641	-0.000801446	0.0643009
13651	-0.000744223	0.0641439
13661	-0.000744223	0.0640394
13671	-0.000763297	0.0638188
13681	-0.000992187	0.0640066
13691	-0.000782372	0.0634638
13701	-0.000973113	0.0634128
13711	-0.00091589	0.0633256
13721	-0.000896816	0.0630807
13731	-0.000839594	0.0632388
13741	-0.000858668	0.0628895
13751	-0.000954038	0.0627787
13761	-0.000896816	0.0626517
13771	-0.000934964	0.0625654
13781	-0.000858668	0.0626432
13791	-0.000992187	0.0622668
13800	-0.000934964	0.0623227