File: Data_03_Experiment/CA_001_C01.txt
time/s	Ewe/V	<I>/mA
1	1.49923	142.623
40	1.49937	11.6501
79	1.49919	6.98481
118	1.49927	5.37532
157	1.49923	4.68996
196	1.49931	4.36809
235	1.49925	4.20418
274	1.49931	3.93681
313	1.49927	3.8967
352	1.49939	3.80698
391	1.4994	3.77975
430	1.49935	3.61005
469	1.49919	3.68376
508	1.49925	3.82833
547	1.49918	3.84629
586	1.49921	3.77594
625	1.49939	3.5452
664	1.49923	3.70233
703	1.49925	3.78631
742	1.49929	3.79431
781	1.49937	3.46904
820	1.49919	3.47898
859	1.49919	3.55325
898	1.49942	3.58132
937	1.49925	3.45841
976	1.49929	3.28173
1015	1.49937	3.40343
1054	1.49935	3.3967
1093	1.49929	3.38582
1132	1.49937	3.19599
1171	1.4995	3.25939
1210	1.49933	3.26994
1249	1.49918	3.27479
1288	1.49908	3.11926
1327	1.49946	3.07711
1366	1.49925	3.10954
1405	1.49925	3.14508
1444	1.49931	3.07466
1483	1.49923	2.94474
1522	1.49942	2.98725
1561	1.49929	3.00689
1600	1.49935	2.98757
1639	1.49931	2.84993
1678	1.49933	2.86985
1717	1.49923	2.9326
1756	1.49929	2.92885
1795	1.49925	2.79909
1833.95	-0.000964338	-0.934654
1872.95	-0.000964338	-0.41315
1911.95	-0.00100249	-0.245118
1950.95	-0.00100249	-0.16337
1989.95	-0.000983412	-0.114986
2028.95	-0.00100249	-0.0827763
2067.95	-0.00107878	-0.0608477
2106.95	-0.000945264	-0.0439456
2145.95	-0.00113601	-0.0322506
2184.95	-0.000964338	-0.0222932
2223.95	-0.00107878	-0.0145517
2262.95	-0.000983412	-0.00783712
2301.95	-0.000983412	-0.00248612
2340.95	-0.00104063	0.0010725
2379.95	-0.00100249	0.00520337
2418.95	-0.00102156	0.00785343
2457.95	-0.00104063	0.011678
2496.95	-0.000945264	0.0129336
2535.95	-0.000964338	0.0154848
2574.95	-0.00104063	0.0169818
2613.95	-0.00107878	0.0197296
2652.95	-0.00102156	0.0205579
2691.95	-0.00100249	0.0218971
2730.95	-0.00105971	0.023407
2769.95	-0.00115508	0.0242811
2808.95	-0.00104063	0.025674
2847.95	-0.00109786	0.0255166
2886.95	-0.00092619	0.0269177
2925.95	-0.00092619	0.0275762
2964.95	-0.00100249	0.0291354
3003.95	-0.00105971	0.0287438
3042.95	-0.00104063	0.0295126
3081.95	-0.00111693	0.0299843
3120.95	-0.000964338	0.0309818
3159.95	-0.000964338	0.0304988
3198.95	-0.00109786	0.0308675
3237.95	-0.000983412	0.0314025
3276.95	-0.00111693	0.0323434
3315.95	-0.00100249	0.0322751
3354.95	-0.000983412	0.0319183
3393.95	-0.00104063	0.0323359
3432.95	-0.00107878	0.032697
3471.95	-0.00100249	0.0338431
3510.95	-0.00107878	0.0326351
3549.95	-0.00105971	0.0330169
3588.95	-0.00100249	0.0331765
3627.95	-0.00109786	0.0346397
3666.95	-0.00111693	0.0334683
3705.95	-0.000983412	0.0336203
3744.95	-0.00104063	0.0336985
3783.95	-0.00119323	0.0344249
3822.95	-0.00107878	0.0341704
3861.95	-0.00104063	0.0337798
3900.95	-0.00111693	0.0340038
3939.95	-0.00104063	0.034009
3978.95	-0.00105971	0.034853
4017.95	-0.000983412	0.0342035
4056.95	-0.00105971	0.0345261
4095.95	-0.00111693	0.0344497
4134.95	-0.000964338	0.0355414
4173.95	-0.00104063	0.0342795
4212.95	-0.00102156	0.0342851
4251.95	-0.00113601	0.0343473
4290.95	-0.00105971	0.0348886
4329.95	-0.00105971	0.0349752
4368.95	-0.000964338	0.0346182
4407.95	-0.00117415	0.0348738
4446.95	-0.00107878	0.034919
4485.95	-0.00100249	0.0353091
4524.95	-0.00105971	0.0344625
4563.95	-0.00105971	0.0345814
4602.95	-0.00100249	0.0345314
4641.95	-0.000964338	0.0352048
4680.95	-0.000983412	0.0346819
4719.95	-0.000907116	0.0346299
4758.95	-0.000983412	0.0345819
4797.95	-0.00104063	0.0351404
4836.95	-0.00113601	0.0349519
4875.95	-0.00113601	0.0345028
4914.95	-0.00104063	0.0344188
4953.95	-0.000888042	0.0343454
4992.95	-0.00102156	0.0348993
5031.95	-0.00113601	0.0342056
5070.95	-0.00104063	0.0343101
5109.95	-0.00100249	0.0341263
5148.95	-0.00100249	0.0345358
5187.95	-0.000964338	0.0339487
5226.95	-0.00104063	0.0338457
5265.95	-0.000964338	0.0337593
5304.95	-0.00111693	0.0342287
5343.95	-0.00105971	0.0341275
5382.95	-0.00109786	0.0336128
5421.95	-0.00105971	0.033682
5460.95	-0.00100249	0.0336252
5499.95	-0.000983412	0.0338173
5538.95	-0.00100249	0.0331593
5577.95	-0.00104063	0.0333998
5616.95	-0.00100249	0.0332702
5655.95	-0.00104063	0.033674
5694.95	-0.00102156	0.0332159
5733.95	-0.00102156	0.0331758
5772.95	-0.00102156	0.0330416
5811.95	-0.00104063	0.0332543
5850.95	-0.000945264	0.0330128
5889.95	-0.00107878	0.0326842
5928.95	-0.00107878	0.0328583
5967.95	-0.00100249	0.0326856
6006.95	-0.000983412	0.0328881
6045.95	-0.00107878	0.0326141
6084.95	-0.00092619	0.0323406
6123.95	-0.00109786	0.0321968
6162.95	-0.00107878	0.0324929
6201.95	-0.000907116	0.0320735
6240.95	-0.00105971	0.031995
6279.95	-0.00092619	0.0322549
6318.95	-0.00104063	0.0321524
6357.95	-0.00115508	0.0319741
6396.95	-0.00100249	0.0319786
6435.95	-0.00115508	0.031734
6474.95	-0.00107878	0.0317542
6513.95	-0.00083082	0.0317914
6552.95	-0.000964338	0.0314623
6591.95	-0.000983412	0.0316539
6630.95	-0.00107878	0.0313359
6669.95	-0.00102156	0.031599
6708.95	-0.00102156	0.0312814
6747.95	-0.00104063	0.0311858
6786.95	-0.00105971	0.0310929
6825.95	-0.000964338	0.0311196
6864.95	-0.00113601	0.0309819
6903.95	-0.00115508	0.0308127
6942.95	-0.000983412	0.0308727
6981.95	-0.00107878	0.0306934
7020.95	-0.00104063	0.0309136
7059.95	-0.00115508	0.0302438
7098.95	-0.00105971	0.0301598
7137.95	-0.00117415	0.0303788
7176.95	-0.000888042	0.03042
7215.95	-0.000945264	0.030138
7254.95	-0.00111693	0.0301075
7293.95	-0.00100249	0.0299921
7332.95	-0.00102156	0.0300215
7371.95	-0.00113601	0.0300098
7410.95	-0.00104063	0.0297877
7449.95	-0.00100249	0.0296826
7488.95	-0.000964338	0.0297393
7527.95	-0.00107878	0.0298969
7566.95	-0.00104063	0.0295675
7605.95	-0.00123138	0.0295232
7644.95	-0.00111693	0.029503
7683.95	-0.000945264	0.0297608
7722.95	-0.000964338	0.0292419
7761.95	-0.00100249	0.0293379
7800.95	-0.000983412	0.0292089
7839.95	-0.00100249	0.0292588
7878.95	-0.00105971	0.0290506
7917.95	-0.000964338	0.0289427
7956.95	-0.00104063	0.0288291
7995.95	-0.000888042	0.0289456
8034.95	-0.00107878	0.0288258
8073.95	-0.00105971	0.0285603
8112.95	-0.00117415	0.028483
8151.95	-0.00104063	0.0283849
8190.95	-0.00104063	0.0285318
8229.95	-0.00109786	0.0282307
8268.95	-0.00105971	0.0283419
8307.95	-0.00115508	0.0282565
8346.95	-0.00105971	0.028444
8385.95	-0.00107878	0.0281208
8424.95	-0.00107878	0.0281186
8463.95	-0.00104063	0.0280253
8502.95	-0.00102156	0.028096
8541.95	-0.000964338	0.0280309
8580.95	-0.00092619	0.027754
8619.95	-0.00100249	0.0277567
8658.95	-0.00117415	0.0276413
8697.95	-0.000983412	0.0277026
8736.95	-0.000983412	0.0274232
8775.95	-0.00102156	0.02758
8814.95	-0.00102156	0.0273843
8853.95	-0.000868968	0.0275758
8892.95	-0.00105971	0.0273553
8931.95	-0.00104063	0.0271926
8970.95	-0.00104063	0.0271444
9009.95	-0.000868968	0.0271157
9048.95	-0.00104063	0.0272101
9087.95	-0.000983412	0.0269751
9126.95	-0.00105971	0.0269967
9165.95	-0.00102156	0.0269115
9204.95	-0.00111693	0.0270871
9243.95	-0.00111693	0.0267285
9282.95	-0.00109786	0.0266788
9321.95	-0.000964338	0.0266737
9360.95	-0.00111693	0.0267791
9399.95	-0.00100249	0.0266234
9438.95	-0.000907116	0.0265917
9477.95	-0.000983412	0.0263818
9516.95	-0.00102156	0.0263893
9555.95	-0.000983412	0.0264364
9594.95	-0.00102156	0.0261528
9633.95	-0.00105971	0.0262075
9672.95	-0.00102156	0.0261165
9711.95	-0.00115508	0.0262933
9750.95	-0.00100249	0.0260497
9789.95	-0.00102156	0.0258367
9828.95	-0.00105971	0.025894
9867.95	-0.00100249	0.0260291
9906.95	-0.00092619	0.0258686
9945.95	-0.00119323	0.0257439
9984.95	-0.00105971	0.0257136
10024	-0.000945264	0.0258054
10063	-0.00107878	0.0256932
10102	-0.00100249	0.0255218
10141	-0.00102156	0.0254213
10180	-0.000983412	0.0253583
10219	-0.00105971	0.0256223
10258	-0.00092619	0.0252667
10297	-0.00111693	0.0252935
10336	-0.00107878	0.0253325
10375	-0.00105971	0.025357
10414	-0.00109786	0.025168
10453	-0.00100249	0.0251465
10492	-0.00104063	0.0250531
10531	-0.00104063	0.0250692
10570	-0.00115508	0.0249903
10609	-0.00100249	0.0249015
10648	-0.00104063	0.0248239
10687	-0.00107878	0.0247774
10726	-0.000983412	0.02487
10765	-0.00119323	0.0246514
10804	-2.00075	-142.839
10843	-2.00079	-19.9318
10882	-2.00094	-13.7733
10921	-2.00079	-11.3722
10960	-2.00083	-9.95634
10999	-2.00094	-9.0397
11038	-2.00085	-8.38438
11077	-2.00086	-7.91012
11116	-2.0009	-7.48995
11155	-2.00079	-7.18163
11194	-2.00088	-6.94208
11233	-2.0009	-6.76962
11272	-2.00092	-6.57536
11311	-2.0009	-6.44874
11350	-2.00075	-6.33898
11389	-2.00094	-6.28007
11428	-2.00094	-6.20196
11467	-2.00086	-6.14484
11506	-2.00096	-6.10695
11545	-2.00096	-6.08409
11584	-2.00098	-6.12002
11623	-2.00081	-6.12298
11662	-2.00096	-6.15902
11701	-0.00119323	115.667
11740	-0.00092619	2.63874
11779	-0.000964338	1.71324
11818	-0.00100249	1.39951
11857	-0.00107878	1.22095
11896	-0.0012123	1.09426
11935	-0.00111693	0.974843
11974	-0.00092619	0.862535
12013	-0.000964338	0.756357
12052	-0.000983412	0.671318
12091	-0.000868968	0.607733
12130	-0.00109786	0.551847
12169	-0.00107878	0.50772
12208	-0.00102156	0.466089
12247	-0.00105971	0.435136
12286	-0.00104063	0.404876
12325	-0.00100249	0.379695
12364	-0.00105971	0.356373
12403	-0.000983412	0.337828
12442	-0.00105971	0.318883
12481	-0.00104063	0.301158
12520	-0.000945264	0.285528
12559	-0.00107878	0.271272
12598	-0.00102156	0.258825
12637	-0.00102156	0.246046
12676	-0.00102156	0.234829
12715	-0.00113601	0.224706
12754	-0.00105971	0.215882
12793	-0.00109786	0.206348
12832	-0.00109786	0.198108
12871	-0.000945264	0.190418
12910	-0.00104063	0.183591
12949	-0.00107878	0.176663
12988	-0.00092619	0.170133
13027	-0.00117415	0.164229
13066	-0.00105971	0.158744
13105	-0.00100249	0.153724
13144	-0.00105971	0.14832
13183	-0.000983412	0.143758
13222	-0.00102156	0.139308
13261	-0.00102156	0.135678
13300	-0.00102156	0.131294
13339	-0.00105971	0.127659
13378	-0.00115508	0.123992
13417	-0.00113601	0.121173
13456	-0.00117415	0.117879
13495	-0.00107878	0.114451
13534	-0.00107878	0.111799
13573	-0.00113601	0.109249
13612	-0.00113601	0.106634
13651	-0.00107878	0.103833
13690	-0.00111693	0.101534
13729	-0.00113601	0.0992054
13768	-0.00104063	0.0974825
13807	-0.00092619	0.0950686
13846	-0.00111693	0.0930159
13885	-0.0012123	0.0909869
13924	-0.00104063	0.0896628
13963	-0.00111693	0.0876314
14002	-0.000964338	0.0859065
14041	-0.00105971	0.0843786
14080	-0.00111693	0.082875
14119	-0.00105971	0.0814096
14158	-0.00109786	0.0797001
14197	-0.0012123	0.0783855
14236	-0.000888042	0.0770847
14275	-0.00100249	0.076064
14314	-0.000983412	0.0745331
14353	-0.00113601	0.0733485
14392	-0.000945264	0.0721447
14431	1.49937	23.4901
14470	1.49931	12.285
14509	1.49931	8.15413
14548	1.49939	6.10408
14587	1.49925	5.01348
14626	1.49948	4.37852
14665	1.49946	4.07365
14704	1.49929	3.75883
14743	1.49927	3.53022
14782	1.4994	3.31988
14821	1.49927	3.29775
14860	1.49935	3.29887
14899	1.49925	3.39042
14938	1.49927	3.27715
14977	1.49931	3.22511
15016	1.49927	3.31452
15055	1.49919	3.36565
15094	1.49916	3.32618
15133	1.49948	3.25755
15172	1.49931	3.25091
15211	1.49935	3.24406
15250	1.49923	3.20072
15289	1.49958	3.0589
15328	1.49918	3.05503
15367	1.49918	3.06154
15406	1.49921	3.07728
15445	1.49933	3.05959
15484	1.49919	2.90924
15523	1.49919	2.9682
15562	1.49931	2.95884
15601	1.49925	2.94843
15640	1.49927	2.88249
15679	1.49925	2.86594
15718	1.49921	2.8293
15757	1.49931	2.88766
15796	1.49946	2.7394
15835	1.49929	2.73425
15874	1.49942	2.74307
15913	1.4994	2.71987
15952	1.49927	2.76105
15991	1.49939	2.64391
16030	1.49933	2.62689
16069	1.49933	2.65362
16108	1.49929	2.65477
16147	1.49931	2.5697
16186	1.49927	2.55022
16225	-0.000983412	-1.47414
16264	-0.00100249	-0.555923
16303	-0.00102156	-0.329653
16342	-0.000964338	-0.226773
16381	-0.00107878	-0.169412
16420	-0.000964338	-0.133536
16459	-0.00115508	-0.108512
16498	-0.000964338	-0.0907719
16537	-0.000964338	-0.0766385
16576	-0.00115508	-0.0659176
16615	-0.000964338	-0.056572
16654	-0.00113601	-0.0504506
16693	-0.00102156	-0.0430771
16732	-0.00102156	-0.0376673
16771	-0.00109786	-0.0327814
16810	-0.00109786	-0.0290834
16849	-0.000964338	-0.0257505
16888	-0.00100249	-0.0222789
16927	-0.00105971	-0.0194001
16966	-0.00105971	-0.0162199
17005	-0.00104063	-0.0143371
17044	-0.00105971	-0.0119318
17083	-0.00092619	-0.0102537
17122	-0.000945264	-0.00825941
17161	-0.00115508	-0.00682294
17200	-0.00107878	-0.00503359
17239	-0.000945264	-0.00383159
17278	-0.00104063	-0.00230566
17317	-0.000907116	-0.00130943
17356	-0.00100249	-1.62313e-05
17395	-0.00111693	0.00112511
17434	-0.00102156	0.00155859
17473	-0.00102156	0.0023691
17512	-0.00107878	0.00336455
17551	-0.00104063	0.00418587
17590	-0.0012123	0.00449755
17629	-0.00100249	0.00589215
17668	-0.00104063	0.00628398
17707	-0.000907116	0.00671264
17746	-0.00109786	0.00713411
17785	-0.00107878	0.00802648
17824	-0.00100249	0.00789772
17863	-0.000983412	0.00851654
17902	-0.00100249	0.00910879
17941	-0.00105971	0.00944015
17980	-0.00105971	0.0103256
18019	-0.000983412	0.010263
18058	-0.00102156	0.010559
18097	-0.00100249	0.0109322
18136	-0.00102156	0.011789
18175	-0.00111693	0.0117285
18214	-0.00111693	0.0118497
18253	-0.00109786	0.0119486
18292	-0.00109786	0.0127506
18331	-0.00092619	0.0125004
18370	-0.00100249	0.0128728
18409	-0.00109786	0.0128319
18448	-0.00102156	0.0127123
18487	-0.000945264	0.0132992
18526	-0.00113601	0.0132559
18565	-0.00107878	0.0130165
18604	-0.000983412	0.0132713
18643	-0.00111693	0.0140375
18682	-0.00104063	0.013836
18721	-0.000983412	0.013989
18760	-0.00100249	0.013836
18799	-0.000868968	0.0145935
18838	-0.00113601	0.014321
18877	-0.00100249	0.0143648
18916	-0.00092619	0.0144647
18955	-0.000983412	0.0145285
18994	-0.000945264	0.014897
19033	-0.00111693	0.0145261
19072	-0.00109786	0.0149866
19111	-0.000964338	0.0148423
19150	-0.00104063	0.0154799
19189	-0.00100249	0.0146871
19228	-0.00107878	0.0149792
19267	-0.00100249	0.0152856
19306	-0.00109786	0.0153193
19345	-0.00102156	0.0151157
19384	-0.000868968	0.0152823
19423	-0.00109786	0.0154193
19462	-0.00107878	0.0152608
19501	-0.00100249	0.0154938
19540	-0.00111693	0.0152572
19579	-0.00102156	0.0154859
19618	-0.00104063	0.0154574
19657	-0.00107878	0.0155907
19696	-0.000945264	0.0150942
19735	-0.00104063	0.0154689
19774	-0.000811746	0.0154667
19813	-0.00102156	0.0158134
19852	-0.00100249	0.0157386
19891	-0.000983412	0.0153453
19930	-0.00111693	0.0154769
19969	-0.00102156	0.0158145
20008	-0.00117415	0.0157799
20047	-0.00105971	0.0153148
20086	-0.000888042	0.0155334
20125	-0.00105971	0.0155877
20164	-0.00100249	0.0158339
20203	-0.00119323	0.0156098
20242	-0.000964338	0.0156441
20281	-0.000964338	0.0154935
20320	-0.00100249	0.0157736
20359	-0.000945264	0.015545
20398	-0.00104063	0.0154931
20437	-0.00109786	0.0156234
20476	-0.00100249	0.0157166
20515	-0.000983412	0.0157428
20554	-0.00109786	0.015135
20593	-0.00107878	0.0155548
20632	-0.00126952	0.0153475
20671	-0.000907116	0.0156984
20710	-0.00107878	0.0151652
20749	-0.00109786	0.0153699
20788	-0.00104063	0.0157726
20827	-0.00100249	0.0156681
20866	-0.00102156	0.0152987
20905	-0.00105971	0.015445
20944	-0.00115508	0.0153322
20983	-0.000964338	0.0153869
21022	-0.00107878	0.015394
21061	-0.00109786	0.0151176
21100	-0.00100249	0.0152994
21139	-0.00111693	0.0150787
21178	-0.00100249	0.0156006
21217	-0.00105971	0.0151907
21256	-0.00107878	0.0149972
21295	-0.00115508	0.0149525
21334	-0.00105971	0.0155335
21373	-0.00104063	0.01598
21412	-0.00111693	0.0155614
21451	-0.00109786	0.0155792
21490	-0.000868968	0.0156937
21529	-0.00105971	0.0159262
21568	-0.00107878	0.0156046
21607	-0.00092619	0.0154706
21646	-0.00102156	0.0154556
21685	-0.00111693	0.0156876
21724	-0.00102156	0.015255
21763	-0.00104063	0.0153066
21802	-0.000907116	0.0153849
21841	-0.00119323	0.0155472
21880	-0.00092619	0.0153262
21919	-0.00104063	0.0153311
21958	-0.00109786	0.0154592
21997	-0.00092619	0.0153397
22036	-0.00109786	0.0153994
22075	-0.00102156	0.0153213
22114	-0.00102156	0.0152272
22153	-0.000964338	0.0151845
22192	-0.000945264	0.0153586
22231	-0.00111693	0.0149098
22270	-0.00105971	0.0151798
22309	-0.00105971	0.0150709
22348	-0.000964338	0.015404
22387	-0.00113601	0.0151174
22426	-0.000888042	0.0151469
22465	-0.00117415	0.0150378
22504	-0.000983412	0.0151308
22543	-0.00107878	0.0150731
22582	-0.00105971	0.0147516
22621	-0.00119323	0.0146625
22660	-0.000907116	0.0146326
22699	-0.00109786	0.0150278
22738	-0.0012123	0.0148065
22777	-0.00102156	0.014847
22816	-0.00105971	0.0148751
22855	-0.000964338	0.0150784
22894	-0.000945264	0.0146931
22933	-0.00109786	0.0146278
22972	-0.000964338	0.0145817
23011	-0.00107878	0.0149139
23050	-0.00102156	0.0148159
23089	-0.00107878	0.0144988
23128	-0.000945264	0.0146362
23167	-0.000964338	0.0147106
23206	-0.00107878	0.0148731
23245	-0.000964338	0.014515
23284	-0.00119323	0.014686
23323	-0.000964338	0.0144109
23362	-0.00100249	0.0148178
23401	-0.00104063	0.014495
23440	-0.000964338	0.0143781
23479	-0.00102156	0.0144407
23518	-0.00111693	0.0145242
23557	-0.00100249	0.0144628
23596	-0.00102156	0.0144247
23635	-0.00113601	0.0142797
23674	-0.00104063	0.0142818
23713	-0.00109786	0.0141268
23752	-0.00109786	0.0138926
23791	-0.00102156	0.0139177
23830	-0.00092619	0.0138722
23869	-0.000945264	0.0140422
23908	-0.00117415	0.0137361
23947	-0.00117415	0.0138241
23986	-0.00109786	0.0135344
24025	-0.00109786	0.0137789
24064	-0.00119323	0.01355
24103	-0.000945264	0.0135856
24142	-0.00109786	0.0134355
24181	-0.00109786	0.0134493
24220	-0.00102156	0.0135595
24259	-0.000983412	0.013302
24298	-0.000964338	0.0134346
24337	-0.00113601	0.0133062
24376	-0.00102156	0.0133189
24415	-0.00109786	0.0132143
24454	-0.00104063	0.0132217
24493	-0.00109786	0.0133454
24532	-0.000964338	0.0133737
24571	-0.00117415	0.01313
24610	-0.00115508	0.0129932
24649	-0.00109786	0.0131137
24688	-0.00102156	0.0130529
24727	-0.00105971	0.0131809
24766	-0.000983412	0.013069
24805	-0.00102156	0.0130747
24844	-0.000983412	0.0130332
24883	-0.000964338	0.0132579
24922	-0.000983412	0.0127812
24961	-0.00109786	0.0130507
25000	-0.00105971	0.0128776
25039	-0.00117415	0.0129643
25078	-0.00100249	0.0129527
25117	-0.000983412	0.012935
25156	-0.00092619	0.0128949
25195	-0.00104063	0.0127706
25234	-2.0009	-22.1108
25273	-2.00094	-14.6807
25312	-2.00088	-12.2196
25351	-2.00088	-10.8344
25390	-2.00098	-10.0059
25429	-2.00088	-9.31589
25468	-2.00079	-8.79018
25507	-2.00075	-8.40378
25546	-2.00083	-8.07296
25585	-2.00083	-7.80906
25624	-2.001	-7.54399
25663	-2.00086	-7.3261
25702	-2.00085	-7.14819
25741	-2.00085	-7.03286
25780	-2.0009	-6.89172
25819	-2.00085	-6.81168
25858	-2.00088	-6.71201
25897	-2.00083	-6.6609
25936	-2.0009	-6.58591
25975	-2.00088	-6.4931
26014	-2.00096	-6.43444
26053	-2.0009	-6.37372
26092	-2.00088	-6.34387
26131	-0.00109786	2.83681
26170	-0.00102156	1.447
26209	-0.00107878	1.04992
26248	-0.00104063	0.870681
26287	-0.00105971	0.745116
26326	-0.00100249	0.65214
26365	-0.00104063	0.586724
26404	-0.00117415	0.53036
26443	-0.00109786	0.481377
26482	-0.00100249	0.441391
26521	-0.00104063	0.411573
26560	-0.00105971	0.38379
26599	-0.00109786	0.359899
26638	-0.00105971	0.337241
26677	-0.00105971	0.319709
26716	-0.00100249	0.303025
26755	-0.000983412	0.289571
26794	-0.000983412	0.275433
26833	-0.000983412	0.262551
26872	-0.00102156	0.252464
26911	-0.00100249	0.243579
26950	-0.00105971	0.233535
26989	-0.000945264	0.224275
27028	-0.000964338	0.21628
27067	-0.00109786	0.209061
27106	-0.00111693	0.202358
27145	-0.000983412	0.194882
27184	-0.00115508	0.188903
27223	-0.00100249	0.182805
27262	-0.00109786	0.178333
27301	-0.00105971	0.172237
27340	-0.00104063	0.167368
27379	-0.00104063	0.162566
27418	-0.00105971	0.159002
27457	-0.00102156	0.154361
27496	-0.00113601	0.149936
27535	-0.00107878	0.146124
27574	-0.000868968	0.142536
27613	-0.00109786	0.13919
27652	-0.00102156	0.135288
27691	-0.00105971	0.132097
27730	-0.00102156	0.12877
27769	-0.00104063	0.126505
27808	-0.000983412	0.123109
27847	-0.00109786	0.120325
27886	-0.000907116	0.117585
27925	-0.00102156	0.115862
27964	-0.000983412	0.112956
28003	-0.000907116	0.110392
28042	-0.000888042	0.10814
28081	-0.00092619	0.106094
28120	-0.00109786	0.104101
28159	-0.00115508	0.10164
28198	-0.00102156	0.0996747
28237	-0.000983412	0.0978548
28276	-0.000983412	0.0963993
28315	-0.00109786	0.0941319
28354	-0.00115508	0.092435
28393	-0.000983412	0.0905469
28432	-0.00102156	0.0895058
28471	-0.00100249	0.0877653
28510	-0.00107878	0.0861278
28549	-0.000983412	0.0846154
28588	-0.00104063	0.0834949
28627	-0.00109786	0.0821617
28666	-0.00100249	0.080413
28705	-0.00109786	0.0792043
28744	-0.00102156	0.0779825
28783	-0.000964338	0.077084
28822	1.49931	22.699
28861	1.49935	9.02586
28900	1.49927	6.04944
28939	1.49933	4.75534
28978	1.49921	4.15
29017	1.49919	3.75984
29056	1.49925	3.53197
29095	1.49939	3.43086
29134	1.49927	3.36274
29173	1.49939	3.34574
29212	1.49919	3.38299
29251	1.49933	3.28812
29290	1.49935	3.22308
29329	1.49927	3.19766
29368	1.49935	3.28517
29407	1.49939	3.20933
29446	1.4995	3.13095
29485	1.49942	3.04627
29524	1.49933	3.14536
29563	1.49921	3.15043
29602	1.49931	3.07969
29641	1.49946	3.06839
29680	1.49935	3.0544
29719	1.49929	3.01061
29758	1.49921	2.97383
29797	1.49929	2.9284
29836	1.49929	2.9436
29875	1.49929	2.89035
29914	1.49937	2.87692
29953	1.49942	2.83769
29992	1.49937	2.75519
30031	1.49921	2.80333
30070	1.49931	2.7746
30109	1.49939	2.77126
30148	1.49921	2.68657
30187	1.4991	2.70376
30226	1.49927	2.67073
30265	1.4994	2.67204
30304	1.49939	2.62713
30343	1.49931	2.5914
30382	1.49939	2.56852
30421	1.49925	2.5414
30460	1.49939	2.57249
30499	1.49927	2.50346
30538	1.49923	2.5385
30577	1.49918	2.51321
30616	-0.00109786	-2.22654
30655	-0.00102156	-0.600517
30694	-0.000983412	-0.322797
30733	-0.000945264	-0.211545
30772	-0.000983412	-0.152838
30811	-0.000983412	-0.117703
30850	-0.000983412	-0.094117
30889	-0.00104063	-0.0773317
30928	-0.00092619	-0.0650564
30967	-0.00109786	-0.0555425
31006	-0.00109786	-0.0484832
31045	-0.00100249	-0.0424661
31084	-0.00107878	-0.0375938
31123	-0.00115508	-0.0331145
31162	-0.00111693	-0.0299924
31201	-0.00113601	-0.0268579
31240	-0.00104063	-0.0240118
31279	-0.00100249	-0.0213694
31318	-0.00102156	-0.0195924
31357	-0.00100249	-0.0179805
31396	-0.00113601	-0.0161461
31435	-0.00105971	-0.0144594
31474	-0.000964338	-0.0131065
31513	-0.000945264	-0.011999
31552	-0.000964338	-0.0106165
31591	-0.00105971	-0.00966094
31630	-0.00104063	-0.00837606
31669	-0.00104063	-0.00799358
31708	-0.00113601	-0.00695433
31747	-0.00105971	-0.00610869
31786	-0.00092619	-0.005021
31825	-0.00102156	-0.00468067
31864	-0.000983412	-0.00417607
31903	-0.00105971	-0.00340208
31942	-0.00105971	-0.0028483
31981	-0.00102156	-0.00220175
32020	-0.00092619	-0.0020375
32059	-0.00113601	-0.00125394
32098	-0.00102156	-0.000819799
32137	-0.00105971	-0.000205067
32176	-0.00102156	-0.000209998
32215	-0.00102156	0.000185027
32254	-0.00104063	0.000491776
32293	-0.000983412	0.00125902
32332	-0.000964338	0.00146671
32371	-0.00092619	0.00166473
32410	-0.00102156	0.00197082
32449	-0.00102156	0.00228931
32488	-0.00100249	0.00269331
32527	-0.00115508	0.00257109
32566	-0.00102156	0.00297533
32605	-0.00107878	0.00311916
32644	-0.00104063	0.00384482
32683	-0.000983412	0.00373448
32722	-0.00102156	0.00395713
32761	-0.000945264	0.00414979
32800	-0.000983412	0.00461857
32839	-0.00092619	0.00445702
32878	-0.00100249	0.00459654
32917	-0.000945264	0.00486413
32956	-0.00107878	0.00512408
32995	-0.000983412	0.00524319
33034	-0.00100249	0.00518287
33073	-0.00102156	0.00554366
33112	-0.00126952	0.00550347
33151	-0.00107878	0.00594462
33190	-0.000888042	0.00551104
33229	-0.00113601	0.00584309
33268	-0.000983412	0.00602395
33307	-0.000964338	0.00647033
33346	-0.00105971	0.00628479
33385	-0.000983412	0.00621347
33424	-0.00092619	0.00648112
33463	-0.00105971	0.0065968
33502	-0.000907116	0.00658602
33541	-0.00107878	0.00653029
33580	-0.00115508	0.00672538
33619	-0.00113601	0.00672943
33658	-0.00111693	0.00705413
33697	-0.00107878	0.00678779
33736	-0.00102156	0.00703533
33775	-0.00104063	0.00691997
33814	-0.00109786	0.00727847
33853	-0.000888042	0.00695939
33892	-0.00104063	0.0070572
33931	-0.00104063	0.00721654
33970	-0.00102156	0.0072531
34009	-0.00092619	0.00740267
34048	-0.00102156	0.00711984
34087	-0.00100249	0.00741863
34126	-0.000983412	0.00733626
34165	-0.00105971	0.00771448
34204	-0.00102156	0.00724978
34243	-0.00104063	0.00764787
34282	-0.000983412	0.00770347
34321	-0.00102156	0.00783473
34360	-0.000983412	0.00780626
34399	-0.00102156	0.00763546
34438	-0.00102156	0.00767019
34477	-0.00104063	0.00794186
34516	-0.00109786	0.0079366
34555	-0.00109786	0.00777585
34594	-0.00113601	0.00795208
34633	-0.000964338	0.00757949
34672	-0.00105971	0.00827016
34711	-0.00115508	0.00798323
34750	-0.00105971	0.00818775
34789	-0.000888042	0.00824945
34828	-0.00092619	0.00850963
34867	-0.000964338	0.00833219
34906	-0.000888042	0.00824029
34945	-0.00100249	0.00832378
34984	-0.00105971	0.00851883
35023	-0.00111693	0.00849676
35062	-0.00105971	0.00817665
35101	-0.00109786	0.00842788
35140	-0.000907116	0.00835887
35179	-0.00100249	0.00855162
35218	-0.00100249	0.00842649
35257	-0.000907116	0.00843845
35296	-0.00105971	0.00850922
35335	-0.00105971	0.00877533
35374	-0.00102156	0.00844557
35413	-0.00111693	0.00844288
35452	-0.00109786	0.00847107
35491	-0.00102156	0.00868354
35530	-0.000907116	0.00861817
35569	-0.00100249	0.00827055
35608	-0.00104063	0.00849701
35647	-0.00104063	0.00865077
35686	-0.000983412	0.00869445
35725	-0.00115508	0.00837527
35764	-0.00100249	0.00838673
35803	-0.000907116	0.00822772
35842	-0.000945264	0.00866468
35881	-0.00115508	0.00819012
35920	-0.00102156	0.00821883
35959	-0.000849894	0.00826353
35998	-0.00113601	0.00846115
36037	-0.00100249	0.00828388
36076	-0.00100249	0.0081499
36115	-0.000964338	0.00819537
36154	-0.00109786	0.00810522
36193	-0.000983412	0.00831236
36232	-0.00111693	0.00813912
36271	-0.00100249	0.00823405
36310	-0.00100249	0.00821659
36349	-0.00113601	0.0085273
36388	-0.00107878	0.00802612
36427	-0.00104063	0.00816972
36466	-0.00100249	0.0082041
36505	-0.00105971	0.00825632
36544	-0.00104063	0.00805448
36583	-0.00107878	0.00803401
36622	-0.00109786	0.00796369
36661	-0.00123138	0.00798293
36700	-0.00111693	0.00806973
36739	-0.000983412	0.0078153
36778	-0.00100249	0.00791884
36817	-0.00100249	0.00787229
36856	-0.00105971	0.00810102
36895	-0.00102156	0.00789405
36934	-0.00092619	0.00781743
36973	-0.00102156	0.0078303
37012	-0.00092619	0.00811511
37051	-0.00115508	0.00788655
37090	-0.000964338	0.00775607
37129	-0.00104063	0.00782253
37168	-0.000964338	0.0078406
37207	-0.00113601	0.00808915
37246	-0.00111693	0.00778821
37285	-0.000907116	0.00781871
37324	-0.00113601	0.00786622
37363	-0.000983412	0.00804522
37402	-0.00105971	0.00772292
37441	-0.00107878	0.00770436
37480	-0.000964338	0.00775552
37519	-0.00117415	0.00789082
37558	-0.00083082	0.00765944
37597	-0.00102156	0.00757863
37636	-0.00109786	0.00772015
37675	-0.00111693	0.00775486
37714	-0.000964338	0.00773945
37753	-0.00113601	0.00757323
37792	-0.000983412	0.00761685
37831	-0.000888042	0.00763423
37870	-0.00100249	0.00770077
37909	-0.00104063	0.00763862
37948	-0.000868968	0.00763552
37987	-0.00111693	0.00763388
38026	-0.00111693	0.00781763
38065	-0.000983412	0.00763253
38104	-0.00102156	0.00754394
38143	-0.000849894	0.00763676
38182	-0.00104063	0.00770204
38221	-0.00111693	0.00768222
38260	-0.000964338	0.0075062
38299	-0.000849894	0.00765059
38338	-0.00109786	0.00749067
38377	-0.00111693	0.00768782
38416	-0.000907116	0.00740217
38455	-0.000964338	0.00751427
38494	-0.0012123	0.00741406
38533	-0.00100249	0.00761119
38572	-0.00100249	0.00773073
38611	-0.000888042	0.00743578
38650	-0.00100249	0.00746032
38689	-0.00117415	0.00757494
38728	-0.00104063	0.00756756
38767	-0.00107878	0.00743146
38806	-0.00117415	0.0075521
38845	-0.00105971	0.00738061
38884	-0.00119323	0.00759534
38923	-0.000964338	0.00735665
38962	-0.00107878	0.007273
39001	-0.00104063	0.00733776
39040	-0.000888042	0.00757837
39079	-0.00107878	0.00726881
39118	-0.00092619	0.00730714
39157	-0.000964338	0.00733426
39196	-0.00115508	0.00738049
39235	-0.00102156	0.00732605
39274	-0.00092619	0.00714509
39313	-0.00109786	0.00734777
39352	-0.00113601	0.00731005
39391	-0.00107878	0.00746057
39430	-0.00117415	0.00722681
39469	-0.00109786	0.00732143
39508	-0.00113601	0.00723133
39547	-0.000945264	0.0073986
39586	-0.00105971	0.00707316
39625	-2.00086	-24.9026
39664	-2.0009	-14.4296
39703	-2.001	-11.8151
39742	-2.00086	-10.5106
39781	-2.00086	-9.63128
39820	-2.00069	-9.01235
39859	-2.00092	-8.55792
39898	-2.001	-8.23181
39937	-2.00094	-7.8999
39976	-2.00081	-7.65445
40015	-2.00085	-7.42578
40054	-2.00092	-7.23548
40093	-2.00086	-7.07617
40132	-2.00088	-6.90083
40171	-2.0009	-6.76735
40210	-2.001	-6.64533
40249	-2.00104	-6.55621
40288	-2.00092	-6.44602
40327	-2.00081	-6.35295
40366	-2.0009	-6.2708
40405	-2.00094	-6.22118
40444	-2.00075	-6.12905
40483	-2.0009	-6.05981
40522	-0.00100249	3.81736
40561	-0.000983412	1.43015
40600	-0.00100249	0.913654
40639	-0.000868968	0.693534
40678	-0.00104063	0.57571
40717	-0.00111693	0.498061
40756	-0.000983412	0.44409
40795	-0.00115508	0.400637
40834	-0.000983412	0.365247
40873	-0.00107878	0.337893
40912	-0.00100249	0.316671
40951	-0.00104063	0.29509
40990	-0.00100249	0.277296
41029	-0.00100249	0.261739
41068	-0.00104063	0.249007
41107	-0.00100249	0.236669
41146	-0.00104063	0.224434
41185	-0.00105971	0.214491
41224	-0.000964338	0.205626
41263	-0.00100249	0.198397
41302	-0.00126952	0.189688
41341	-0.000983412	0.182682
41380	-0.00111693	0.175952
41419	-0.00104063	0.171106
41458	-0.000945264	0.164795
41497	-0.00100249	0.159353
41536	-0.00104063	0.154088
41575	-0.00109786	0.150195
41614	-0.00107878	0.14558
41653	-0.000983412	0.141001
41692	-0.00102156	0.137143
41731	-0.000945264	0.133252
41770	-0.00102156	0.13056
41809	-0.00107878	0.126331
41848	-0.000983412	0.123275
41887	-0.00109786	0.119953
41926	-0.00100249	0.117874
41965	-0.000945264	0.114499
42004	-0.00100249	0.111619
42043	-0.000964338	0.109063
42082	-0.000773597	0.107227
42121	-0.00111693	0.104559
42160	-0.000983412	0.102077
42199	-0.00111693	0.0998413
42238	-0.00104063	0.0978288
42277	-0.00104063	0.0963577
42316	-0.00092619	0.093828
42355	-0.00115508	0.0919953
42394	-0.00111693	0.090112
42433	-0.00107878	0.0890164
42472	-0.00117415	0.0869337
42511	-0.000983412	0.08517
42550	-0.00111693	0.0835354
42589	-0.00115508	0.0825409
42628	-0.000964338	0.0809666
42667	-0.00104063	0.0792844
42706	-0.00117415	0.0779122
42745	-0.00100249	0.0767392
42784	-0.00105971	0.0757685
42823	-0.00100249	0.0740469
42862	-0.00111693	0.0729844
42901	-0.00107878	0.0716721
42940	-0.00107878	0.0710511
42979	-0.00092619	0.0696098
43018	-0.00111693	0.0684185
43057	-0.00109786	0.0672708
43096	-0.00105971	0.0668157
43135	-0.00113601	0.0655241
43174	-0.00100249	0.0645875
43213	1.49919	24.6979
43252	1.49916	7.74432
43291	1.49929	5.20584
43330	1.49929	4.22111
43369	1.49933	3.7057
43408	1.49944	3.44802
43447	1.4995	3.33866
43486	1.49939	3.42264
43525	1.49927	3.43558
43564	1.49929	3.41971
43603	1.49919	3.26443
43642	1.49944	3.19719
43681	1.49933	3.18954
43720	1.49925	3.26608
43759	1.49944	3.20065
43798	1.49923	3.14029
43837	1.49927	3.11622
43876	1.49916	3.04247
43915	1.49944	3.07843
43954	1.49944	2.97661
43993	1.4994	2.96829
44032	1.49918	2.92766
44071	1.49939	2.92039
44110	1.49937	2.90625
44149	1.49929	2.84375
44188	1.49939	2.836
44227	1.49927	2.80245
44266	1.49919	2.77246
44305	1.49927	2.75963
44344	1.49933	2.72707
44383	1.49931	2.72929
44422	1.49933	2.72926
44461	1.49933	2.66506
44500	1.49931	2.63454
44539	1.4994	2.62562
44578	1.49931	2.64258
44617	1.49927	2.6152
44656	1.49927	2.56522
44695	1.4994	2.55373
44734	1.49927	2.5727
44773	1.49925	2.5434
44812	1.49939	2.51087
44851	1.49916	2.45815
44890	1.49939	2.48671
44929	1.4994	2.45536
44968	1.49923	2.44468
45007	-0.00109786	-5.32818
45046	-0.00107878	-0.727157
45085	-0.00100249	-0.354674
45124	-0.00105971	-0.222496
45163	-0.00111693	-0.156247
45202	-0.00109786	-0.117442
45241	-0.000945264	-0.0925303
45280	-0.000983412	-0.0752964
45319	-0.00104063	-0.0632993
45358	-0.00119323	-0.0536754
45397	-0.00107878	-0.0465574
45436	-0.000907116	-0.0405255
45475	-0.00111693	-0.0358937
45514	-0.00105971	-0.0321064
45553	-0.000945264	-0.0286561
45592	-0.00107878	-0.0256882
45631	-0.00102156	-0.0232272
45670	-0.00109786	-0.0212517
45709	-0.00102156	-0.0194099
45748	-0.00104063	-0.0178407
45787	-0.00107878	-0.01615
45826	-0.00107878	-0.0148937
45865	-0.00107878	-0.0137964
45904	-0.00102156	-0.0126861
45943	-0.00109786	-0.0116113
45982	-0.00100249	-0.0108132
46021	-0.000945264	-0.0100585
46060	-0.00104063	-0.00945039
46099	-0.000983412	-0.0086338
46138	-0.00102156	-0.00777772
46177	-0.00117415	-0.00752169
46216	-0.00109786	-0.00700999
46255	-0.00100249	-0.00639874
46294	-0.000945264	-0.00572203
46333	-0.00100249	-0.00540623
46372	-0.00092619	-0.00493872
46411	-0.00100249	-0.00461176
46450	-0.00107878	-0.00408414
46489	-0.00115508	-0.00375369
46528	-0.000983412	-0.00358768
46567	-0.00109786	-0.00320149
46606	-0.00102156	-0.00288431
46645	-0.000983412	-0.00246392
46684	-0.00102156	-0.00253736
46723	-0.00107878	-0.00205698
46762	-0.00100249	-0.00181423
46801	-0.00107878	-0.0013784
46840	-0.00105971	-0.00146406
46879	-0.00107878	-0.00115983
46918	-0.00107878	-0.000905724
46957	-0.000964338	-0.000484589
46996	-0.000964338	-0.0005637
47035	-0.000868968	-0.000460762
47074	-0.000983412	-4.88272e-05
47113	-0.00107878	2.41517e-06
47152	-0.00113601	0.00029253
47191	-0.00111693	0.000222975
47230	-0.00107878	0.000344349
47269	-0.00100249	0.000561558
47308	-0.00104063	0.000953609
47347	-0.000888042	0.000778778
47386	-0.000945264	0.000945552
47425	-0.00105971	0.00115176
47464	-0.000983412	0.00143809
47503	-0.00115508	0.00147088
47542	-0.00104063	0.00144428
47581	-0.00111693	0.00166815
47620	-0.00113601	0.00184966
47659	-0.00107878	0.00199941
47698	-0.00117415	0.00185066
47737	-0.00107878	0.0020651
47776	-0.00100249	0.00211125
47815	-0.000983412	0.00246079
47854	-0.00117415	0.00220566
47893	-0.000945264	0.00234103
47932	-0.00109786	0.00242358
47971	-0.00092619	0.00282864
48010	-0.000907116	0.0026407
48049	-0.00111693	0.00262962
48088	-0.000945264	0.00269457
48127	-0.00113601	0.00290297
48166	-0.00109786	0.00302511
48205	-0.00113601	0.00290177
48244	-0.00102156	0.00306995
48283	-0.00104063	0.00316069
48322	-0.000983412	0.00338315
48361	-0.000964338	0.00314488
48400	-0.00105971	0.00323608
48439	-0.000849894	0.00339569
48478	-0.00105971	0.00347688
48517	-0.00111693	0.00342359
48556	-0.00102156	0.00339972
48595	-0.000907116	0.00354874
48634	-0.000964338	0.00372552
48673	-0.00100249	0.00384079
48712	-0.00100249	0.00359307
48751	-0.000983412	0.00381856
48790	-0.00104063	0.00375281
48829	-0.00115508	0.00391344
48868	-0.000983412	0.00383102
48907	-0.00107878	0.0039408
48946	-0.000945264	0.00409441
48985	-0.00105971	0.00415608
49024	-0.00107878	0.00401493
49063	-0.000964338	0.00405963
49102	-0.00092619	0.00406904
49141	-0.000945264	0.00419487
49180	-0.00109786	0.00423865
49219	-0.00104063	0.00404278
49258	-0.00107878	0.00421281
49297	-0.00109786	0.00415717
49336	-0.00105971	0.00442071
49375	-0.000945264	0.0043209
49414	-0.000983412	0.00418381
49453	-0.00107878	0.00444268
49492	-0.00100249	0.0045372
49531	-0.00102156	0.00442753
49570	-0.000945264	0.00447804
49609	-0.00111693	0.00447543
49648	-0.000983412	0.00457289
49687	-0.00107878	0.00458297
49726	-0.00115508	0.00442056
49765	-0.00092619	0.00462172
49804	-0.00113601	0.00465543
49843	-0.00100249	0.00473128
49882	-0.000964338	0.00458517
49921	-0.00111693	0.00456191
49960	-0.000945264	0.00462675
49999	-0.00102156	0.00484896
50038	-0.00100249	0.00469059
50077	-0.00102156	0.00467349
50116	-0.000849894	0.00470123
50155	-0.00092619	0.00486567
50194	-0.00107878	0.00489706
50233	-0.00100249	0.00478075
50272	-0.00113601	0.00479721
50311	-0.00102156	0.00476459
50350	-0.00100249	0.00497817
50389	-0.00111693	0.00468947
50428	-0.000983412	0.00485833
50467	-0.00102156	0.00497586
50506	-0.000983412	0.00509701
50545	-0.000945264	0.00496422
50584	-0.00092619	0.00481841
50623	-0.00102156	0.00491751
50662	-0.00102156	0.00503944
50701	-0.00105971	0.00492217
50740	-0.00111693	0.00491701
50779	-0.00105971	0.00502423
50818	-0.00102156	0.00497576
50857	-0.00100249	0.00517875
50896	-0.00111693	0.00488145
50935	-0.00104063	0.00501007
50974	-0.00104063	0.00506971
51013	-0.00102156	0.00521597
51052	-0.00119323	0.00495387
51091	-0.00102156	0.00501395
51130	-0.000888042	0.00499536
51169	-0.000983412	0.00519981
51208	-0.00105971	0.00510916
51247	-0.00104063	0.0050003
51286	-0.00109786	0.00508547
51325	-0.0012123	0.00518284
51364	-0.00104063	0.00525035
51403	-0.000983412	0.0050132
51442	-0.00104063	0.00507319
51481	-0.000945264	0.00512648
51520	-0.00107878	0.00534929
51559	-0.00104063	0.00500768
51598	-0.000945264	0.00508514
51637	-0.000945264	0.00508281
51676	-0.00102156	0.00522432
51715	-0.000964338	0.00506085
51754	-0.00105971	0.00519571
51793	-0.00100249	0.00512388
51832	-0.00109786	0.00516622
51871	-0.00113601	0.00517789
51910	-0.00105971	0.0051779
51949	-0.00109786	0.00514111
51988	-0.00105971	0.00517358
52027	-0.00100249	0.00534248
52066	-0.00083082	0.00519701
52105	-0.000792671	0.0050511
52144	-0.00100249	0.00520639
52183	-0.00092619	0.00535601
52222	-0.00092619	0.00519894
52261	-0.00100249	0.00509297
52300	-0.00115508	0.00521844
52339	-0.00102156	0.00523124
52378	-0.00107878	0.00528185
52417	-0.000945264	0.00507562
52456	-0.000964338	0.00510486
52495	-0.00111693	0.00518658
52534	-0.00113601	0.00527218
52573	-0.00100249	0.00520947
52612	-0.000868968	0.00511185
52651	-0.00104063	0.00519451
52690	-0.00117415	0.00532905
52729	-0.00100249	0.00517857
52768	-0.00107878	0.00516886
52807	-0.00104063	0.00514409
52846	-0.00104063	0.00529336
52885	-0.00113601	0.00530028
52924	-0.000964338	0.00515442
52963	-0.00113601	0.0051896
53002	-0.000945264	0.00525356
53041	-0.00104063	0.00536807
53080	-0.00104063	0.0052249
53119	-0.00105971	0.00518693
53158	-0.00104063	0.00524063
53197	-0.00102156	0.00537853
53236	-0.000945264	0.0051564
53275	-0.00104063	0.00512491
53314	-0.00107878	0.00541811
53353	-0.00102156	0.00528322
53392	-0.00102156	0.00535033
53431	-0.00109786	0.00513458
53470	-0.00105971	0.00517994
53509	-0.00123138	0.00509932
53548	-0.00105971	0.00541732
53587	-0.00100249	0.00511797
53626	-0.00102156	0.00515553
53665	-0.000983412	0.00516544
53704	-0.000907116	0.0053336
53743	-0.000945264	0.00539536
53782	-0.000945264	0.0051711
53821	-0.000907116	0.00508854
53860	-0.00111693	0.00524527
53899	-0.00109786	0.0052694
53938	-0.000983412	0.00518508
53977	-0.00105971	0.00524025
54016	-2.00088	-35.1662
54055	-2.00081	-15.2102
54094	-2.00081	-12.0928
54133	-2.00079	-10.6181
54172	-2.00092	-9.72494
54211	-2.00086	-9.11727
54250	-2.0009	-8.64904
54289	-2.00081	-8.2549
54328	-2.00083	-7.95429
54367	-2.00083	-7.70452
54406	-2.00088	-7.48914
54445	-2.00083	-7.33939
54484	-2.00088	-7.19616
54523	-2.001	-7.06958
54562	-2.0009	-6.99058
54601	-2.00098	-6.88261
54640	-2.00098	-6.78551
54679	-2.00088	-6.70547
54718	-2.00096	-6.62836
54757	-2.00092	-6.5724
54796	-2.00086	-6.49277
54835	-2.00098	-6.40612
54874	-2.00073	-6.32873
54913	-0.00104063	6.60303
54952	-0.00105971	1.62094
54991	-0.00117415	0.922645
55030	-0.00117415	0.660483
55069	-0.00102156	0.530816
55108	-0.00113601	0.446448
55147	-0.00113601	0.392045
55186	-0.00104063	0.352672
55225	-0.00113601	0.32198
55264	-0.00104063	0.298388
55303	-0.00107878	0.276031
55342	-0.00102156	0.258388
55381	-0.00102156	0.243603
55420	-0.00105971	0.232102
55459	-0.000983412	0.219358
55498	-0.00092619	0.208833
55537	-0.00105971	0.198972
55576	-0.00102156	0.191955
55615	-0.00105971	0.183249
55654	-0.000983412	0.175696
55693	-0.00107878	0.168926
55732	-0.000983412	0.163528
55771	-0.00111693	0.158398
55810	-0.000945264	0.152637
55849	-0.00105971	0.14787
55888	-0.00100249	0.143038
55927	-0.00102156	0.139691
55966	-0.000983412	0.134621
56005	-0.00092619	0.130779
56044	-0.000983412	0.12704
56083	-0.00105971	0.124577
56122	-0.000983412	0.120826
56161	-0.00104063	0.117547
56200	-0.00100249	0.114715
56239	-0.00107878	0.11212
56278	-0.00105971	0.109658
56317	-0.00105971	0.106676
56356	-0.00117415	0.104314
56395	-0.00105971	0.101964
56434	-0.00105971	0.10026
56473	-0.00104063	0.0975191
56512	-0.00107878	0.0954265
56551	-0.00104063	0.0933837
56590	-0.00107878	0.0919832
56629	-0.00104063	0.0898062
56668	-0.00107878	0.0878205
56707	-0.00102156	0.0862365
56746	-0.00102156	0.0849886
56785	-0.00111693	0.0833873
56824	-0.000964338	0.0814567
56863	-0.00113601	0.0800154
56902	-0.00102156	0.0787049
56941	-0.00107878	0.0777131
56980	-0.00111693	0.0759812
57019	-0.000964338	0.0746637
57058	-0.000983412	0.0732742
57097	-0.00092619	0.072694
57136	-0.00109786	0.0711068
57175	-0.000983412	0.0697847
57214	-0.000888042	0.0687386
57253	-0.00111693	0.0680992
57292	-0.00111693	0.0668711
57331	-0.00092619	0.0656238
57370	-0.00105971	0.064675
57409	-0.00104063	0.0638674
57448	-0.00100249	0.063195
57487	-0.000964338	0.0620445
57526	-0.00102156	0.0610125
57565	-0.00109786	0.0602697
57600	-0.00083082	0.0592325