File: Data_33_Experiment/CA_001_C01.txt
time/s	Ewe/V	<I>/mA
1	1.49951	343.383
45	1.49959	20.2036
89	1.49957	15.7974
133	1.49953	15.3668
177	1.49955	15.371
221	1.49947	15.4121
265	1.49941	15.42
309	1.49955	15.3394
353	1.49945	15.1639
397	1.49964	14.9182
441	1.49945	14.6164
485	1.49955	14.2641
529	1.49949	13.8864
573	1.49943	13.4829
617	1.49938	13.0599
661	1.49953	12.6277
705	1.49953	12.1925
749	1.49951	11.755
793	1.4996	11.3214
837	1.49947	10.9021
881	1.49945	10.4962
925	1.49957	10.1132
969	1.4996	9.75459
1013	1.49949	9.41019
1057	1.49945	9.08912
1101	1.49957	8.76634
1145	1.49949	8.44977
1189	1.49936	8.14567
1233	1.49936	7.84784
1277	1.49951	7.56267
1321	1.49949	7.27857
1365	1.49955	7.00802
1409	1.49947	6.75188
1453	1.49947	6.50408
1497	1.4996	6.27365
1541	1.49951	6.04724
1585	1.49953	5.83957
1629	1.49962	5.63716
1673	1.49945	5.44916
1717	1.4994	5.27113
1761	1.4996	5.09326
1805	1.49936	4.92718
1849	1.49938	4.74487
1893	1.49947	4.59713
1937	1.49947	4.45665
1981	1.49949	4.32411
2025	1.49947	4.19782
2069	1.49947	4.08
2113	1.49934	3.9705
2157	1.49953	3.86571
2201	1.49953	3.76616
2245	1.49945	3.67064
2289	1.49953	3.57814
2333	1.49951	3.49286
2377	1.49955	3.41255
2421	1.4996	3.33423
2465	1.49947	3.2604
2509	1.49947	3.18872
2553	1.49947	3.12089
2597	1.49957	3.0561
2641	1.4996	2.99387
2685	1.49964	2.93413
2729	1.49943	2.87654
2773	1.49964	2.82164
2817	1.49957	2.76958
2861	1.49953	2.71958
2905	1.49959	2.66999
2949	1.49943	2.62448
2993	1.49951	2.58111
3037	1.4996	2.5391
3081	1.49947	2.49661
3125	1.49962	2.45506
3169	1.49947	2.41345
3213	1.49934	2.37302
3257	1.49959	2.33383
3301	1.49957	2.29564
3345	1.49964	2.25757
3389	1.49951	2.21935
3433	1.49953	2.18279
3477	1.49945	2.15008
3521	1.49949	2.11958
3565	1.49947	2.09123
3608.98	-0.00108837	-3.13795
3652.98	-0.000859479	-0.397306
3696.98	-0.000935775	-0.142959
3740.98	-0.000935775	-0.0927085
3784.98	-0.000802256	-0.0695027
3828.98	-0.000859479	-0.0550795
3872.98	-0.00101207	-0.0450334
3916.98	-0.000745034	-0.0367935
3960.98	-0.00103115	-0.0304124
4004.98	-0.000859479	-0.0248556
4048.98	-0.000992997	-0.020089
4092.98	-0.000859479	-0.0160268
4136.98	-0.000897627	-0.0123994
4180.98	-0.000916701	-0.00934213
4224.98	-0.000878553	-0.00658262
4268.98	-0.000954849	-0.00403211
4312.98	-0.00082133	-0.00221618
4356.98	-0.00105022	-0.000706557
4400.98	-0.00082133	0.000528208
4444.98	-0.000859479	0.00177773
4488.98	-0.000935775	0.00288206
4532.98	-0.000935775	0.00330912
4576.99	-0.000954849	0.00372932
4620.99	-0.000935775	0.00575739
4664.99	-0.000992997	0.00795012
4708.99	-0.000954849	0.00983899
4752.99	-0.000935775	0.0112656
4796.99	-0.00110744	0.0129011
4840.99	-0.000897627	0.0144933
4884.99	-0.000878553	0.0161355
4928.99	-0.000859479	0.0168254
4972.99	-0.000897627	0.0174368
5016.99	-0.000935775	0.0187488
5060.99	-0.000916701	0.0204463
5104.99	-0.00108837	0.020735
5148.99	-0.000783182	0.0198108
5192.99	-0.000878553	0.0190129
5236.99	-0.00105022	0.0189078
5280.99	-0.00110744	0.0186813
5324.99	-0.000954849	0.0182753
5368.99	-0.000897627	0.0185305
5412.99	-0.00105022	0.0193664
5456.99	-0.000859479	0.0191864
5500.99	-0.000992997	0.0181774
5544.99	-0.000897627	0.0173877
5588.99	-0.000840404	0.0175233
5632.99	-0.000764108	0.0181893
5676.99	-0.00101207	0.018921
5720.99	-0.00105022	0.0185311
5764.99	-0.00101207	0.0176149
5808.99	-0.000802256	0.0170745
5852.99	-0.000973923	0.0171416
5896.99	-0.000802256	0.0175854
5940.99	-0.000973923	0.0176469
5984.99	-0.000878553	0.0176269
6028.99	-0.00082133	0.0172688
6072.99	-0.000859479	0.017201
6116.99	-0.000783182	0.0177623
6160.99	-0.000973923	0.018916
6204.99	-0.000859479	0.02017
6248.99	-0.000897627	0.0215508
6292.99	-0.00082133	0.0225135
6336.99	-0.00101207	0.0231743
6380.99	-0.000935775	0.0232369
6424.99	-0.000859479	0.0229172
6468.99	-0.000954849	0.0226421
6512.99	-0.000954849	0.0222074
6556.99	-0.00101207	0.0215563
6600.99	-0.000897627	0.0211263
6644.99	-0.000802256	0.0211205
6688.99	-0.000954849	0.0216134
6732.99	-0.00105022	0.022237
6776.99	-0.000840404	0.0228414
6820.99	-0.000840404	0.0221502
6864.99	-0.000916701	0.0216003
6908.99	-0.000897627	0.0205016
6952.99	-0.00101207	0.0194936
6996.99	-0.000859479	0.0184872
7040.99	-0.00101207	0.0183893
7084.99	-0.000859479	0.0184525
7128.99	-0.00108837	0.018511
7172.99	-0.000897627	0.0188477
7216.99	-0.000878553	0.019973
7260.99	-0.000935775	0.0205936
7304.99	-0.000859479	0.0200305
7348.99	-0.000916701	0.0192275
7392.99	-0.000935775	0.0189664
7436.99	-0.000878553	0.0184796
7480.99	-0.000878553	0.0183253
7524.99	-0.00101207	0.018542
7568.99	-0.000878553	0.0194793
7612.99	-0.000878553	0.0208321
7656.99	-0.000973923	0.0221442
7700.99	-0.000916701	0.0226193
7744.99	-0.000802256	0.0227392
7788.99	-0.00103115	0.0222171
7832.99	-0.000840404	0.0218656
7876.99	-0.000954849	0.0220818
7920.99	-0.000859479	0.021708
7964.99	-0.00103115	0.0211865
8008.99	-0.00082133	0.0213099
8052.99	-0.00101207	0.0217044
8096.99	-0.00101207	0.0219637
8140.99	-0.000840404	0.021937
8184.99	-0.000859479	0.021478
8228.99	-0.00105022	0.0208093
8272.99	-0.00105022	0.020342
8316.99	-0.000878553	0.0201149
8360.99	-0.000935775	0.0201451
8404.99	-0.000916701	0.0200594
8448.99	-0.000840404	0.0199844
8492.99	-0.000973923	0.0204646
8536.99	-0.000973923	0.0208876
8580.99	-0.000859479	0.0211343
8624.99	-0.000973923	0.0206774
8668.99	-0.000897627	0.0202713
8712.99	-0.000973923	0.0198211
8756.99	-0.000916701	0.0198835
8800.99	-0.000783182	0.0202538
8844.99	-0.000973923	0.019883
8888.99	-0.000916701	0.0195267
8932.99	-0.000916701	0.0192725
8976.99	-0.00103115	0.0194066
9020.99	-0.000954849	0.0204311
9064.99	-0.00082133	0.0217262
9108.99	-0.000954849	0.0220749
9152.99	-0.000916701	0.0219074
9196.99	-0.000973923	0.0215635
9240.99	-0.000992997	0.0211732
9284.99	-0.000973923	0.0213538
9328.99	-0.000859479	0.0216728
9372.99	-0.00082133	0.0217921
9416.99	-0.00082133	0.0216365
9460.99	-0.000802256	0.0213239
9504.99	-0.000783182	0.0214274
9548.99	-0.000878553	0.0214997
9592.99	-0.000935775	0.0213006
9636.99	-0.000783182	0.0209153
9680.99	-0.000935775	0.020715
9724.99	-0.000916701	0.020688
9768.99	-0.000802256	0.0207424
9812.99	-0.000897627	0.0205595
9856.99	-0.000954849	0.0204685
9900.99	-0.000954849	0.0204245
9944.99	-0.000973923	0.0205802
9988.99	-0.000840404	0.0207166
10033	-0.00101207	0.0205404
10077	-0.000859479	0.0207069
10121	-0.000878553	0.0207203
10165	-0.00101207	0.0201275
10209	-0.000916701	0.0196278
10253	-0.000859479	0.019417
10297	-0.00108837	0.0195792
10341	-0.00101207	0.0200405
10385	-0.000992997	0.0202843
10429	-0.000973923	0.0205289
10473	-0.000916701	0.0205928
10517	-0.000954849	0.0209249
10561	-0.000897627	0.0212363
10605	-0.000954849	0.0210677
10649	-0.000973923	0.0210019
10693	-0.000992997	0.0214957
10737	-0.00082133	0.0214699
10781	-0.000916701	0.0209271
10825	-0.000859479	0.0207323
10869	-0.000897627	0.020511
10913	-0.00105022	0.0203097
10957	-0.00105022	0.02022
11001	-0.00112652	0.0200777
11045	-0.00101207	0.0204735
11089	-0.000954849	0.0204962
11133	-0.000992997	0.0201617
11177	-0.000897627	0.0198992
11221	-0.000878553	0.0194942
11265	-0.000802256	0.0197099
11309	-0.000878553	0.0202154
11353	-0.000954849	0.0203515
11397	-0.000992997	0.0201098
11441	-0.000973923	0.0196235
11485	-0.000897627	0.0188768
11529	-0.000840404	0.0185496
11573	-0.000992997	0.0181774
11617	-0.000973923	0.0182579
11661	-0.000859479	0.0187309
11705	-0.00106929	0.0193819
11749	-0.000973923	0.0195916
11793	-0.000783182	0.0197842
11837	-0.000954849	0.0200078
11881	-0.000954849	0.0203387
11925	-0.00082133	0.0205129
11969	-0.000878553	0.0206001
12013	-0.000992997	0.0201405
12057	-0.000897627	0.0199556
12101	-0.00108837	0.020155
12145	-0.000878553	0.0204654
12189	-0.000916701	0.020572
12233	-0.00106929	0.0207534
12277	-0.000954849	0.0204121
12321	-0.000973923	0.0202204
12365	-0.000840404	0.0202714
12409	-0.000935775	0.02033
12453	-0.00112652	0.0201329
12497	-0.000973923	0.0197
12541	-0.000878553	0.0193037
12585	-0.00103115	0.0190412
12629	-2.0008	-57.9872
12673	-2.00086	-33.5903
12717	-2.00072	-24.6096
12761	-2.00086	-19.1755
12805	-2.00078	-15.4609
12849	-2.00089	-12.77
12893	-2.00072	-10.7536
12937	-2.00087	-9.18599
12981	-2.0008	-7.96603
13025	-2.00105	-7.01503
13069	-2.00086	-6.25713
13113	-2.00101	-5.64627
13157	-2.0008	-5.16536
13201	-2.00076	-4.78269
13245	-2.00091	-4.45454
13289	-2.00091	-4.1794
13333	-2.00091	-3.94225
13377	-2.00095	-3.74015
13421	-2.00078	-3.56618
13465	-2.00078	-3.41013
13509	-0.000973923	12.225
13553	-0.000706886	2.42561
13597	-0.00106929	1.59729
13641	-0.000935775	1.3171
13685	-0.000992997	1.16405
13729	-0.000897627	1.05488
13773	-0.000935775	0.972828
13817	-0.000954849	0.903674
13861	-0.000897627	0.847534
13905	-0.000897627	0.802559
13949	-0.000859479	0.762776
13993	-0.000992997	0.726375
14037	-0.000916701	0.697244
14081	-0.000992997	0.669016
14125	-0.000859479	0.642383
14169	-0.000954849	0.621243
14213	-0.00112652	0.60274
14257	-0.000897627	0.585643
14301	-0.000935775	0.571602
14345	-0.000840404	0.556996
14389	-0.00082133	0.542785
14433	-0.000840404	0.530365
14477	-0.000973923	0.518999
14521	-0.000973923	0.509088
14565	-0.000897627	0.498605
14609	-0.00103115	0.489507
14653	-0.00101207	0.478703
14697	-0.00101207	0.471316
14741	-0.000859479	0.464447
14785	-0.000802256	0.458842
14829	-0.000897627	0.454146
14873	-0.000840404	0.450779
14917	-0.000859479	0.448129
14961	-0.000935775	0.445347
15005	-0.000935775	0.442581
15049	-0.00082133	0.438736
15093	-0.000878553	0.433288
15137	-0.000802256	0.42646
15181	-0.000935775	0.418311
15225	-0.000992997	0.410125
15269	-0.000840404	0.402243
15313	-0.000859479	0.394979
15357	-0.000840404	0.389079
15401	-0.000802256	0.383324
15445	-0.000802256	0.37864
15489	-0.000954849	0.374241
15533	-0.00105022	0.369479
15577	-0.00082133	0.364628
15621	-0.000973923	0.360403
15665	-0.000878553	0.35634
15709	-0.00101207	0.352739
15753	-0.000992997	0.349072
15797	-0.000878553	0.345383
15841	-0.000935775	0.341333
15885	-0.000840404	0.337197
15929	-0.000802256	0.33334
15973	-0.000954849	0.32961
16017	-0.000954849	0.325781
16061	-0.000916701	0.322293
16105	-0.000859479	0.319012
16149	-0.000973923	0.316258
16193	-0.000916701	0.313629
16237	1.49951	31.9795
16281	1.49953	18.4287
16325	1.49949	14.3386
16369	1.49955	12.4622
16413	1.49957	11.3791
16457	1.49941	10.6267
16501	1.49968	10.0566
16545	1.49945	9.60084
16589	1.49932	9.1973
16633	1.49957	8.84104
16677	1.49947	8.51065
16721	1.4996	8.20038
16765	1.49949	7.90403
16809	1.4994	7.62198
16853	1.49949	7.33365
16897	1.4996	7.05706
16941	1.49959	6.7876
16985	1.49947	6.52915
17029	1.49949	6.26805
17073	1.49957	6.01611
17117	1.49949	5.77573
17161	1.49957	5.54028
17205	1.49943	5.31015
17249	1.49951	5.08713
17293	1.49943	4.87166
17337	1.49959	4.63967
17381	1.49936	4.44225
17425	1.49962	4.24716
17469	1.49959	4.05609
17513	1.4996	3.87898
17557	1.49945	3.71508
17601	1.49938	3.55318
17645	1.49945	3.40543
17689	1.49959	3.26411
17733	1.49955	3.13582
17777	1.49949	3.01604
17821	1.49941	2.90406
17865	1.49953	2.80094
17909	1.49957	2.70392
17953	1.49943	2.61313
17997	1.49943	2.5298
18041	1.49953	2.45397
18085	1.49945	2.38589
18129	1.49955	2.32367
18173	1.49959	2.26701
18217	1.49945	2.21312
18261	1.49947	2.16149
18305	1.49951	2.11268
18349	1.49966	2.06465
18393	1.49934	2.01832
18437	1.49943	1.97515
18481	1.49955	1.93565
18525	1.49936	1.90029
18569	1.49953	1.86907
18613	1.49943	1.84253
18657	1.49945	1.82583
18701	1.49949	1.81435
18745	1.49949	1.80899
18789	1.49943	1.80024
18833	1.49959	1.78675
18877	1.49932	1.77875
18921	1.49947	1.77677
18965	1.4996	1.76782
19009	1.49947	1.75631
19053	1.49951	1.74934
19097	1.49951	1.74555
19141	1.49947	1.73987
19185	1.49928	1.73582
19229	1.49943	1.72386
19273	1.49945	1.709
19317	1.49941	1.68605
19361	1.49945	1.66926
19405	1.49938	1.64631
19449	1.49955	1.6144
19493	1.49955	1.57843
19537	1.49955	1.54637
19581	1.49962	1.51726
19625	1.49955	1.49893
19669	1.49957	1.48598
19713	1.49955	1.47571
19757	1.49951	1.46542
19801	-0.000878553	-25.3206
19845	-0.000840404	-0.469501
19889	-0.000859479	-0.251334
19933	-0.000897627	-0.17181
19977	-0.000935775	-0.129598
20021	-0.00101207	-0.103047
20065	-0.000859479	-0.0844974
20109	-0.000840404	-0.0708956
20153	-0.000916701	-0.0614168
20197	-0.000954849	-0.0536437
20241	-0.000992997	-0.046616
20285	-0.000859479	-0.04091
20329	-0.000935775	-0.035735
20373	-0.000878553	-0.0312889
20417	-0.000859479	-0.0283043
20461	-0.000916701	-0.0248733
20505	-0.000840404	-0.0227912
20549	-0.000840404	-0.0211574
20593	-0.000802256	-0.0184129
20637	-0.00082133	-0.0152614
20681	-0.000840404	-0.0131485
20725	-0.000859479	-0.0107124
20769	-0.000840404	-0.00803693
20813	-0.00082133	-0.00578897
20857	-0.000859479	-0.00383973
20901	-0.000992997	-0.00222327
20945	-0.000992997	-0.00162324
20989	-0.000973923	-0.0011825
21033	-0.000916701	0.000163787
21077	-0.000954849	0.00158841
21121	-0.000935775	0.00295886
21165	-0.000916701	0.00412564
21209	-0.000878553	0.00509856
21253	-0.000840404	0.00559407
21297	-0.00101207	0.00625106
21341	-0.00082133	0.00686186
21385	-0.000916701	0.0078731
21429	-0.000840404	0.00853026
21473	-0.000802256	0.00888189
21517	-0.000802256	0.00961021
21561	-0.000954849	0.0101347
21605	-0.00105022	0.0105275
21649	-0.000935775	0.0105298
21693	-0.000783182	0.0108272
21737	-0.00101207	0.0117278
21781	-0.000859479	0.0120603
21825	-0.000935775	0.0119284
21869	-0.000935775	0.012508
21913	-0.000878553	0.0121556
21957	-0.000935775	0.011503
22001	-0.000954849	0.0117779
22045	-0.000878553	0.0131877
22089	-0.000954849	0.014409
22133	-0.000840404	0.0148198
22177	-0.00101207	0.0158297
22221	-0.000954849	0.0174373
22265	-0.000745034	0.0180473
22309	-0.000840404	0.0189646
22353	-0.000706886	0.0195292
22397	-0.000973923	0.0199081
22441	-0.000916701	0.0201255
22485	-0.000840404	0.0203071
22529	-0.000802256	0.0197763
22573	-0.000992997	0.018999
22617	-0.00082133	0.0187638
22661	-0.000973923	0.0187049
22705	-0.000935775	0.0186533
22749	-0.000897627	0.0189925
22793	-0.000878553	0.0192509
22837	-0.00072596	0.0196164
22881	-0.000954849	0.0200573
22925	-0.000897627	0.0207624
22969	-0.000973923	0.0217016
23013	-0.000897627	0.0219148
23057	-0.000935775	0.0215848
23101	-0.000916701	0.0213838
23145	-0.00101207	0.0213345
23189	-0.000783182	0.0214121
23233	-0.000878553	0.0214005
23277	-0.000706886	0.0213595
23321	-0.000935775	0.0212595
23365	-0.000954849	0.0211252
23409	-0.000916701	0.021357
23453	-0.000954849	0.0214349
23497	-0.000954849	0.0215549
23541	-0.000802256	0.0223053
23585	-0.000897627	0.0230838
23629	-0.000840404	0.0234394
23673	-0.000935775	0.0238487
23717	-0.000859479	0.0243728
23761	-0.000935775	0.0242938
23805	-0.000935775	0.023518
23849	-0.000897627	0.0231608
23893	-0.000935775	0.0236555
23937	-0.000897627	0.023817
23981	-0.000916701	0.0235174
24025	-0.000764108	0.0236653
24069	-0.000783182	0.0238525
24113	-0.000764108	0.0241802
24157	-0.00103115	0.0243316
24201	-0.000783182	0.0244298
24245	-0.000916701	0.0242844
24289	-0.000878553	0.0244881
24333	-0.000897627	0.0249086
24377	-0.000935775	0.0249191
24421	-0.000840404	0.0248043
24465	-0.000840404	0.0246085
24509	-0.000802256	0.0243028
24553	-0.000878553	0.0237028
24597	-0.000992997	0.0235495
24641	-0.000916701	0.0234073
24685	-0.00082133	0.0234651
24729	-0.000916701	0.0232788
24773	-0.000897627	0.0232457
24817	-0.000973923	0.0233792
24861	-0.000840404	0.0234726
24905	-0.000935775	0.0235268
24949	-0.00101207	0.0239017
24993	-0.00112652	0.0242116
25037	-0.000954849	0.0240711
25081	-0.000802256	0.0242511
25125	-0.00082133	0.0248168
25169	-0.000973923	0.0254945
25213	-0.000859479	0.0257564
25257	-0.000916701	0.0259557
25301	-0.000840404	0.0258975
25345	-0.000916701	0.0252844
25389	-0.000935775	0.0251263
25433	-0.000840404	0.0251557
25477	-0.00106929	0.0251553
25521	-0.00101207	0.0250363
25565	-0.000916701	0.024773
25609	-0.000916701	0.0247187
25653	-0.000783182	0.0248313
25697	-0.000802256	0.0251043
25741	-0.000992997	0.0247821
25785	-0.000935775	0.0244472
25829	-0.000878553	0.0242928
25873	-0.000897627	0.0242323
25917	-0.000859479	0.0243705
25961	-0.000897627	0.0249019
26005	-0.00101207	0.0247055
26049	-0.000954849	0.0242634
26093	-0.000954849	0.023912
26137	-0.00103115	0.0237974
26181	-0.000802256	0.0240018
26225	-0.000745034	0.0242336
26269	-0.000745034	0.0240108
26313	-0.000992997	0.0237765
26357	-0.000935775	0.0238627
26401	-0.00082133	0.0239658
26445	-0.000973923	0.024162
26489	-0.000878553	0.024633
26533	-0.000935775	0.0253642
26577	-0.000935775	0.0257008
26621	-0.000859479	0.0256284
26665	-0.000916701	0.0256062
26709	-0.000935775	0.0256346
26753	-0.000859479	0.0253632
26797	-0.000859479	0.0250629
26841	-0.000916701	0.0248784
26885	-0.000859479	0.02445
26929	-0.00105022	0.0239122
26973	-0.000878553	0.0237655
27017	-0.000859479	0.0238874
27061	-0.000935775	0.0239328
27105	-0.000897627	0.0238165
27149	-0.000935775	0.0235482
27193	-0.00072596	0.023306
27237	-0.000840404	0.0231077
27281	-0.000783182	0.0232493
27325	-0.000859479	0.0234977
27369	-0.00082133	0.0237364
27413	-0.000973923	0.0239274
27457	-0.000992997	0.0239564
27501	-0.000878553	0.0239641
27545	-0.000897627	0.0238982
27589	-0.000935775	0.0238105
27633	-0.000992997	0.023666
27677	-0.00082133	0.0235326
27721	-0.000878553	0.0233464
27765	-0.000859479	0.0233361
27809	-0.000973923	0.0232914
27853	-0.000783182	0.0231995
27897	-0.00101207	0.0233298
27941	-0.000783182	0.0234453
27985	-0.00103115	0.0235155
28029	-0.000878553	0.0236249
28073	-0.000878553	0.0239876
28117	-0.000897627	0.023883
28161	-0.000840404	0.023657
28205	-0.000840404	0.0232582
28249	-0.000935775	0.0230193
28293	-0.000992997	0.0226591
28337	-0.000992997	0.0225867
28381	-0.00101207	0.0225381
28425	-0.000992997	0.0223489
28469	-0.000897627	0.0219992
28513	-0.00103115	0.0217994
28557	-0.00082133	0.0217194
28601	-0.000802256	0.0217898
28645	-0.000897627	0.0220853
28689	-0.000973923	0.0223623
28733	-0.000859479	0.0224701
28777	-0.000992997	0.0224825
28821	-2.00093	-57.3471
28865	-2.00099	-27.318
28909	-2.00076	-18.3908
28953	-2.00082	-13.6937
28997	-2.00093	-10.917
29041	-2.00087	-9.12717
29085	-2.0008	-7.84245
29129	-2.00087	-6.86575
29173	-2.00087	-6.09402
29217	-2.00093	-5.46141
29261	-2.00093	-4.93768
29305	-2.00086	-4.53282
29349	-2.00084	-4.17015
29393	-2.00078	-3.86457
29437	-2.0007	-3.61117
29481	-2.00087	-3.39202
29525	-2.00089	-3.20506
29569	-2.00093	-3.04606
29613	-2.00101	-2.90114
29657	-2.00091	-2.77186
29701	-0.000859479	131.997
29745	-0.000916701	2.48871
29789	-0.000973923	1.33916
29833	-0.000916701	1.01189
29877	-0.000878553	0.852546
29921	-0.00103115	0.75315
29965	-0.000935775	0.680263
30009	-0.000973923	0.625628
30053	-0.00101207	0.580514
30097	-0.000878553	0.541997
30141	-0.000878553	0.508756
30185	-0.000878553	0.478118
30229	-0.000859479	0.452112
30273	-0.000935775	0.428185
30317	-0.000783182	0.407696
30361	-0.000973923	0.389619
30405	-0.000916701	0.373079
30449	-0.000935775	0.358041
30493	-0.000745034	0.344515
30537	-0.000935775	0.331989
30581	-0.000916701	0.321683
30625	-0.000897627	0.311613
30669	-0.000897627	0.301956
30713	-0.000973923	0.292816
30757	-0.000973923	0.284802
30801	-0.000992997	0.277712
30845	-0.000859479	0.271374
30889	-0.000878553	0.266269
30933	-0.00082133	0.262181
30977	-0.000916701	0.258833
31021	-0.000764108	0.255637
31065	-0.000897627	0.252075
31109	-0.000916701	0.248073
31153	-0.000992997	0.242903
31197	-0.000878553	0.238306
31241	-0.000878553	0.234263
31285	-0.000916701	0.230245
31329	-0.00082133	0.226349
31373	-0.000878553	0.22343
31417	-0.000859479	0.220557
31461	-0.000764108	0.218713
31505	-0.000935775	0.217328
31549	-0.000859479	0.216036
31593	-0.000897627	0.215038
31637	-0.000745034	0.213858
31681	-0.000859479	0.212462
31725	-0.00072596	0.211278
31769	-0.000878553	0.210492
31813	-0.000935775	0.209589
31857	-0.000954849	0.208461
31901	-0.000954849	0.207206
31945	-0.00082133	0.205669
31989	-0.00082133	0.204364
32033	-0.00101207	0.203033
32077	-0.00103115	0.201773
32121	-0.000973923	0.200923
32165	-0.000954849	0.200256
32209	-0.000859479	0.199675
32253	-0.000916701	0.199232
32297	-0.000973923	0.198589
32341	-0.00103115	0.198627
32385	-0.000916701	0.19862
32429	1.49949	28.0745
32473	1.49959	14.1506
32517	1.49959	10.4534
32561	1.49968	8.91586
32605	1.49962	8.07806
32649	1.49953	7.55734
32693	1.4996	7.17527
32737	1.4996	6.87142
32781	1.49945	6.62141
32825	1.49938	6.39926
32869	1.49943	6.17672
32913	1.49959	5.95367
32957	1.49949	5.72801
33001	1.49934	5.49304
33045	1.49947	5.26408
33089	1.49957	5.02294
33133	1.49953	4.76417
33177	1.49951	4.54059
33221	1.49949	4.29756
33265	1.49957	4.0614
33309	1.49955	3.81896
33353	1.49962	3.57751
33397	1.49955	3.33821
33441	1.49953	3.11434
33485	1.49959	2.90907
33529	1.49941	2.72804
33573	1.49947	2.56903
33617	1.49949	2.43293
33661	1.49947	2.3159
33705	1.49945	2.21331
33749	1.49945	2.12342
33793	1.49955	2.04863
33837	1.49953	1.99201
33881	1.49953	1.95162
33925	1.49953	1.91731
33969	1.49941	1.88272
34013	1.49955	1.8428
34057	1.49936	1.80963
34101	1.49957	1.7918
34145	1.49943	1.79046
34189	1.49962	1.77835
34233	1.49945	1.7542
34277	1.49966	1.72521
34321	1.49949	1.70446
34365	1.4996	1.6995
34409	1.49941	1.70181
34453	1.49949	1.69667
34497	1.49945	1.68902
34541	1.49945	1.66909
34585	1.49962	1.63958
34629	1.4994	1.6185
34673	1.49951	1.60866
34717	1.49957	1.60751
34761	1.49947	1.59409
34805	1.49947	1.57397
34849	1.49964	1.56224
34893	1.49962	1.55655
34937	1.49947	1.54796
34981	1.49955	1.53834
35025	1.49962	1.52947
35069	1.49962	1.51581
35113	1.4994	1.51207
35157	1.49945	1.50255
35201	1.49957	1.49041
35245	1.49947	1.48184
35289	1.49949	1.47833
35333	1.49953	1.47359
35377	1.49966	1.46417
35421	1.49936	1.45604
35465	1.49951	1.43911
35509	1.49945	1.42443
35553	1.49953	1.40753
35597	1.49943	1.3846
35641	1.49949	1.36732
35685	1.4996	1.35626
35729	1.49955	1.34049
35773	1.49953	1.32651
35817	1.49957	1.31754
35861	1.49955	1.31007
35905	1.49955	1.30211
35949	1.49953	1.29384
35993	1.49934	1.28719
36037	-0.00082133	-0.601163
36081	-0.000954849	-0.289517
36125	-0.000935775	-0.188354
36169	-0.00106929	-0.137249
36213	-0.00082133	-0.10669
36257	-0.000973923	-0.0863794
36301	-0.00110744	-0.0724083
36345	-0.000878553	-0.0622231
36389	-0.000897627	-0.0540636
36433	-0.000859479	-0.0477749
36477	-0.000878553	-0.0426162
36521	-0.000916701	-0.0380146
36565	-0.000840404	-0.0339433
36609	-0.000745034	-0.0306523
36653	-0.000935775	-0.0278753
36697	-0.000897627	-0.0251614
36741	-0.000973923	-0.0224618
36785	-0.00082133	-0.0200236
36829	-0.000935775	-0.0178583
36873	-0.000802256	-0.0160533
36917	-0.000783182	-0.0148005
36961	-0.000840404	-0.0133967
37005	-0.000935775	-0.0120847
37049	-0.000935775	-0.0110031
37093	-0.00106929	-0.00974525
37137	-0.000878553	-0.00877165
37181	-0.00082133	-0.00783244
37225	-0.00105022	-0.00686531
37269	-0.000897627	-0.00612667
37313	-0.00106929	-0.00552199
37357	-0.000935775	-0.00469909
37401	-0.000992997	-0.0039554
37445	-0.000878553	-0.0030843
37489	-0.000859479	-0.00192834
37533	-0.000954849	-0.00119543
37577	-0.000783182	-0.000793691
37621	-0.000783182	-0.000161625
37665	-0.00103115	0.000685964
37709	-0.000859479	0.00141687
37753	-0.000897627	0.00213254
37797	-0.000897627	0.00268349
37841	-0.00106929	0.00308323
37885	-0.000878553	0.00336143
37929	-0.000992997	0.0038737
37973	-0.000840404	0.00458087
38017	-0.00112652	0.00507196
38061	-0.00106929	0.0058917
38105	-0.000802256	0.0064358
38149	-0.000954849	0.00691817
38193	-0.000954849	0.00706035
38237	-0.000992997	0.00713476
38281	-0.000897627	0.00770844
38325	-0.000840404	0.00819364
38369	-0.00101207	0.00864118
38413	-0.000764108	0.00874394
38457	-0.000859479	0.00876775
38501	-0.000916701	0.00856556
38545	-0.000859479	0.00865065
38589	-0.000859479	0.00909116
38633	-0.000992997	0.00943575
38677	-0.000935775	0.00964687
38721	-0.000935775	0.00982624
38765	-0.000878553	0.0102047
38809	-0.000859479	0.0102332
38853	-0.000878553	0.0100736
38897	-0.000878553	0.0101142
38941	-0.000935775	0.0103515
38985	-0.000859479	0.0106485
39029	-0.000840404	0.0111681
39073	-0.00101207	0.0114475
39117	-0.000916701	0.0116318
39161	-0.000897627	0.0119293
39205	-0.000859479	0.012294
39249	-0.000897627	0.0126654
39293	-0.00082133	0.012774
39337	-0.000840404	0.012817
39381	-0.000897627	0.0125744
39425	-0.00114559	0.0122601
39469	-0.000954849	0.0121858
39513	-0.000935775	0.0128775
39557	-0.000668738	0.0134929
39601	-0.000706886	0.0141818
39645	-0.000897627	0.014529
39689	-0.000897627	0.0146507
39733	-0.000954849	0.0148386
39777	-0.000916701	0.0151873
39821	-0.000783182	0.0150963
39865	-0.00106929	0.0148558
39909	-0.000916701	0.0147245
39953	-0.00101207	0.0144374
39997	-0.000840404	0.0142438
40041	-0.000954849	0.0142196
40085	-0.000840404	0.0142246
40129	-0.000802256	0.0142131
40173	-0.000840404	0.0145753
40217	-0.000935775	0.0147493
40261	-0.000954849	0.0148412
40305	-0.000897627	0.0149171
40349	-0.000840404	0.0148
40393	-0.000916701	0.0149638
40437	-0.000973923	0.0152538
40481	-0.000992997	0.0152858
40525	-0.00103115	0.0153573
40569	-0.000973923	0.01544
40613	-0.000897627	0.0152234
40657	-0.000859479	0.0152021
40701	-0.000954849	0.0156777
40745	-0.000840404	0.0158568
40789	-0.000935775	0.0158537
40833	-0.00082133	0.0157228
40877	-0.000897627	0.015458
40921	-0.000954849	0.015445
40965	-0.00101207	0.0156313
41009	-0.000745034	0.0159301
41053	-0.000783182	0.0164433
41097	-0.000916701	0.0168249
41141	-0.000878553	0.017196
41185	-0.000878553	0.017399
41229	-0.00101207	0.0176778
41273	-0.000859479	0.017691
41317	-0.000878553	0.0175603
41361	-0.000973923	0.0171295
41405	-0.000840404	0.0167827
41449	-0.000649663	0.0166216
41493	-0.000668738	0.0164953
41537	-0.000878553	0.016467
41581	-0.000935775	0.0164225
41625	-0.000916701	0.0163022
41669	-0.000840404	0.0162337
41713	-0.000992997	0.0163202
41757	-0.000954849	0.0165906
41801	-0.000840404	0.0168736
41845	-0.000916701	0.016923
41889	-0.000992997	0.0168985
41933	-0.000992997	0.0169143
41977	-0.00103115	0.0168891
42021	-0.000859479	0.0167103
42065	-0.00105022	0.0165954
42109	-0.000840404	0.0163782
42153	-0.000992997	0.0165587
42197	-0.000840404	0.0166269
42241	-0.000764108	0.0166644
42285	-0.000783182	0.0165472
42329	-0.000973923	0.0165681
42373	-0.000840404	0.0167445
42417	-0.00082133	0.0169293
42461	-0.000954849	0.0173094
42505	-0.000954849	0.0176363
42549	-0.00082133	0.0179123
42593	-0.000783182	0.0180431
42637	-0.000687812	0.0180733
42681	-0.00082133	0.0181623
42725	-0.000878553	0.0182064
42769	-0.000897627	0.0180413
42813	-0.00082133	0.0178938
42857	-0.000992997	0.0176401
42901	-0.000954849	0.017348
42945	-0.000783182	0.0172794
42989	-0.000878553	0.0171855
43033	-0.00101207	0.0170469
43077	-0.000973923	0.0169809
43121	-0.000878553	0.0170787
43165	-0.000897627	0.0171192
43209	-0.000840404	0.0170538
43253	-0.00101207	0.0170545
43297	-0.000935775	0.0170907
43341	-0.000973923	0.0170515
43385	-0.000840404	0.0170621
43429	-0.000897627	0.0171482
43473	-0.000897627	0.0173399
43517	-0.000935775	0.0173064
43561	-0.000916701	0.0172854
43605	-0.000916701	0.0170356
43649	-0.000859479	0.017121
43693	-0.000916701	0.0171027
43737	-0.000840404	0.0170953
43781	-0.00082133	0.0171511
43825	-0.000859479	0.0171688
43869	-0.000954849	0.0172446
43913	-0.000935775	0.0173725
43957	-0.000878553	0.0176044
44001	-0.000916701	0.0177624
44045	-0.000878553	0.0179183
44089	-0.000954849	0.0180716
44133	-0.000935775	0.0180558
44177	-0.000878553	0.0179543
44221	-0.000859479	0.0177842
44265	-0.000935775	0.017607
44309	-0.000935775	0.0174623
44353	-0.000859479	0.0173084
44397	-0.000973923	0.0172607
44441	-0.000973923	0.0172082
44485	-0.000935775	0.0169111
44529	-0.000954849	0.0167498
44573	-0.00101207	0.0166777
44617	-0.00082133	0.0167124
44661	-0.000802256	0.0166993
44705	-0.000859479	0.0167374
44749	-0.000954849	0.016753
44793	-0.000897627	0.016869
44837	-0.00082133	0.016878
44881	-0.000954849	0.0168801
44925	-0.000840404	0.0169477
44969	-0.000878553	0.0168693
45013	-2.00091	-54.898
45057	-2.0008	-20.3261
45101	-2.00082	-12.8962
45145	-2.00086	-9.55635
45189	-2.00078	-7.65962
45233	-2.00087	-6.42167
45277	-2.00087	-5.54481
45321	-2.00078	-4.88587
45365	-2.0007	-4.39774
45409	-2.00091	-3.98863
45453	-2.00082	-3.65821
45497	-2.00086	-3.38446
45541	-2.00091	-3.15468
45585	-2.00084	-2.9623
45629	-2.00082	-2.79483
45673	-2.00086	-2.64921
45717	-2.0008	-2.5231
45761	-2.00095	-2.40845
45805	-2.00078	-2.30583
45849	-2.00076	-2.21692
45893	-2.00082	-2.13331
45937	-0.000897627	2.88371
45981	-0.000897627	1.28188
46025	-0.00101207	0.895069
46069	-0.000859479	0.729089
46113	-0.000878553	0.633636
46157	-0.000973923	0.569384
46201	-0.000859479	0.521415
46245	-0.000916701	0.480424
46289	-0.000897627	0.448162
46333	-0.000802256	0.421303
46377	-0.000954849	0.398329
46421	-0.000878553	0.377891
46465	-0.00082133	0.36021
46509	-0.00103115	0.34515
46553	-0.000745034	0.331616
46597	-0.000935775	0.318339
46641	-0.00101207	0.3058
46685	-0.000802256	0.294073
46729	-0.000935775	0.284478
46773	-0.000954849	0.275872
46817	-0.000840404	0.267844
46861	-0.000992997	0.260264
46905	-0.000859479	0.25326
46949	-0.000878553	0.247162
46993	-0.000935775	0.241387
47037	-0.000973923	0.235996
47081	-0.000935775	0.230357
47125	-0.000745034	0.223842
47169	-0.00101207	0.217606
47213	-0.000859479	0.211529
47257	-0.00082133	0.205871
47301	-0.000897627	0.200258
47345	-0.000954849	0.19552
47389	-0.000935775	0.190908
47433	-0.00101207	0.186538
47477	-0.000878553	0.182393
47521	-0.000897627	0.178315
47565	-0.000935775	0.174635
47609	-0.000916701	0.171055
47653	-0.000897627	0.168237
47697	-0.000916701	0.165186
47741	-0.000897627	0.162483
47785	-0.000973923	0.159942
47829	-0.000802256	0.157261
47873	-0.000916701	0.154556
47917	-0.00101207	0.152351
47961	-0.00082133	0.150694
48005	-0.00082133	0.148629
48049	-0.00103115	0.146774
48093	-0.00101207	0.145021
48137	-0.000897627	0.143302
48181	-0.000764108	0.141947
48225	-0.000802256	0.140811
48269	-0.000840404	0.139745
48313	-0.000973923	0.139006
48357	-0.000783182	0.138281
48401	-0.000878553	0.13761
48445	-0.000878553	0.137085
48489	-0.000783182	0.136769
48533	-0.000802256	0.13617
48577	-0.00101207	0.13552
48621	1.49949	25.2668
48665	1.49945	11.8592
48709	1.49953	8.6649
48753	1.49945	7.24627
48797	1.49945	6.40005
48841	1.49957	5.80333
48885	1.4997	5.30925
48929	1.49938	4.88489
48973	1.49941	4.49055
49017	1.49953	4.13831
49061	1.49968	3.78152
49105	1.49943	3.44314
49149	1.49945	3.14233
49193	1.49945	2.88794
49237	1.49957	2.67494
49281	1.4994	2.49803
49325	1.49959	2.35
49369	1.49936	2.234
49413	1.49947	2.15442
49457	1.49955	2.09956
49501	1.49964	2.05693
49545	1.49959	2.03498
49589	1.49934	2.02809
49633	1.4994	2.00036
49677	1.49947	1.95918
49721	1.49951	1.92006
49765	1.49953	1.89303
49809	1.49941	1.87281
49853	1.49947	1.84635
49897	1.49972	1.81414
49941	1.49947	1.77852
49985	1.49941	1.7434
50029	1.49943	1.7078
50073	1.49951	1.67127
50117	1.49951	1.63463
50161	1.4996	1.59791
50205	1.49955	1.56975
50249	1.49957	1.55354
50293	1.4996	1.53618
50337	1.49953	1.52555
50381	1.49962	1.51291
50425	1.49957	1.49259
50469	1.49959	1.47519
50513	1.49953	1.46118
50557	1.49951	1.44621
50601	1.4996	1.4304
50645	1.49945	1.41886
50689	1.49945	1.40673
50733	1.49959	1.39334
50777	1.49972	1.38386
50821	1.49938	1.37871
50865	1.49962	1.36998
50909	1.49941	1.35966
50953	1.49955	1.35396
50997	1.49964	1.34161
51041	1.49947	1.32771
51085	1.49962	1.31553
51129	1.49943	1.30671
51173	1.49949	1.29518
51217	1.49947	1.28704
51261	1.49959	1.28402
51305	1.49928	1.2854
51349	1.4996	1.28407
51393	1.49943	1.28144
51437	1.49951	1.2752
51481	1.49951	1.26755
51525	1.49957	1.25743
51569	1.49953	1.23825
51613	1.49964	1.2189
51657	1.49951	1.20307
51701	1.4996	1.18877
51745	1.4996	1.17662
51789	1.49951	1.16782
51833	1.49945	1.16513
51877	1.49945	1.16362
51921	1.49943	1.15914
51965	1.49959	1.15043
52009	1.49955	1.14484
52053	1.4994	1.14108
52097	1.49966	1.1338
52141	1.49936	1.12545
52185	1.49947	1.11798
52229	-0.000954849	-0.793155
52273	-0.000935775	-0.329069
52317	-0.000954849	-0.200869
52361	-0.000916701	-0.14042
52405	-0.000954849	-0.10555
52449	-0.000935775	-0.0831279
52493	-0.000878553	-0.0673436
52537	-0.00106929	-0.0559148
52581	-0.000973923	-0.0474266
52625	-0.000954849	-0.0407734
52669	-0.000935775	-0.0354378
52713	-0.000840404	-0.0310765
52757	-0.000878553	-0.0271583
52801	-0.000840404	-0.0239469
52845	-0.000935775	-0.0213666
52889	-0.000878553	-0.0192052
52933	-0.000935775	-0.017249
52977	-0.000897627	-0.0156783
53021	-0.000973923	-0.0144136
53065	-0.000973923	-0.0130982
53109	-0.000783182	-0.0117528
53153	-0.00101207	-0.0104198
53197	-0.000878553	-0.00924241
53241	-0.000878553	-0.00808907
53285	-0.000840404	-0.00698992
53329	-0.000973923	-0.00614565
53373	-0.000859479	-0.00544829
53417	-0.000878553	-0.00483127
53461	-0.000878553	-0.00422288
53505	-0.000897627	-0.00341916
53549	-0.000840404	-0.00272808
53593	-0.000878553	-0.0020565
53637	-0.000954849	-0.00150427
53681	-0.000992997	-0.00102271
53725	-0.000745034	-0.000527287
53769	-0.00082133	-0.000120822
53813	-0.000802256	0.000259134
53857	-0.00106929	0.000731622
53901	-0.000973923	0.0011521
53945	-0.00103115	0.00166534
53989	-0.000916701	0.0020458
54033	-0.000935775	0.00238148
54077	-0.000878553	0.00275703
54121	-0.000916701	0.00323427
54165	-0.000878553	0.00381457
54209	-0.000935775	0.00430965
54253	-0.00082133	0.00467095
54297	-0.000859479	0.00473074
54341	-0.000840404	0.00472605
54385	-0.000897627	0.00474753
54429	-0.00106929	0.00487989
54473	-0.000916701	0.00496461
54517	-0.000897627	0.00510826
54561	-0.000992997	0.00547029
54605	-0.000687812	0.00560581
54649	-0.000840404	0.00572341
54693	-0.000859479	0.00590791
54737	-0.000840404	0.00603322
54781	-0.000973923	0.00610638
54825	-0.000897627	0.0063233
54869	-0.000878553	0.00667488
54913	-0.000916701	0.00692587
54957	-0.000935775	0.00711513
55001	-0.000859479	0.00719413
55045	-0.00101207	0.0074896
55089	-0.000954849	0.00763986
55133	-0.000992997	0.0078345
55177	-0.00101207	0.00790084
55221	-0.000878553	0.00800057
55265	-0.000897627	0.0080439
55309	-0.000687812	0.00809572
55353	-0.000954849	0.00813328
55397	-0.000783182	0.00818295
55441	-0.000954849	0.00840986
55485	-0.000916701	0.00850018
55529	-0.000973923	0.00876732
55573	-0.000973923	0.00892163
55617	-0.000878553	0.00926459
55661	-0.000764108	0.00961862
55705	-0.000878553	0.00984792
55749	-0.000916701	0.0100719
55793	-0.000973923	0.0100825
55837	-0.000916701	0.0100817
55881	-0.000897627	0.00991004
55925	-0.000897627	0.00969754
55969	-0.00101207	0.00943433
56013	-0.00072596	0.00945295
56057	-0.000878553	0.00959443
56101	-0.000859479	0.00980877
56145	-0.000859479	0.00986058
56189	-0.000840404	0.0100834
56233	-0.000859479	0.0102045
56277	-0.000802256	0.0102609
56321	-0.000840404	0.0100885
56365	-0.000897627	0.0100994
56409	-0.00103115	0.0102701
56453	-0.000897627	0.0102343
56497	-0.000954849	0.0101997
56541	-0.00082133	0.0100786
56585	-0.000916701	0.0100579
56629	-0.000840404	0.0100315
56673	-0.000935775	0.0101602
56717	-0.00110744	0.0101916
56761	-0.000916701	0.010348
56805	-0.000916701	0.0106407
56849	-0.000916701	0.0106456
56893	-0.000878553	0.0106971
56937	-0.000764108	0.0108423
56981	-0.000954849	0.0108632
57025	-0.000859479	0.011037
57069	-0.000764108	0.011191
57113	-0.000897627	0.0113687
57157	-0.000745034	0.0116039
57201	-0.000802256	0.0118281
57245	-0.000783182	0.0118161
57289	-0.000954849	0.0118118
57333	-0.000668738	0.011698
57377	-0.00082133	0.0115401
57421	-0.000954849	0.011505
57465	-0.000916701	0.011462
57509	-0.000878553	0.0113899
57553	-0.00101207	0.0113536
57597	-0.000954849	0.0112693
57641	-0.000916701	0.0112728
57685	-0.000935775	0.0114312
57729	-0.000764108	0.0114532
57773	-0.000859479	0.0115188
57817	-0.000764108	0.0114168
57861	-0.000840404	0.011312
57905	-0.000840404	0.0113843
57949	-0.000859479	0.0112966
57993	-0.000859479	0.011477
58037	-0.000916701	0.0118175
58081	-0.00082133	0.0114107
58125	-0.000859479	0.0115302
58169	-0.000935775	0.0114398
58213	-0.000935775	0.0112883
58257	-0.00103115	0.0111739
58301	-0.000745034	0.011283
58345	-0.00082133	0.01134
58389	-0.000897627	0.0114015
58433	-0.000859479	0.0114987
58477	-0.000802256	0.0115788
58521	-0.000992997	0.0116211
58565	-0.000916701	0.0118333
58609	-0.000992997	0.012019
58653	-0.000916701	0.0122052
58697	-0.000954849	0.012333
58741	-0.000840404	0.0123291
58785	-0.000992997	0.0122199
58829	-0.00103115	0.0120802
58873	-0.000897627	0.0119309
58917	-0.000916701	0.0118513
58961	-0.000935775	0.0118154
59005	-0.000916701	0.0118415
59049	-0.000840404	0.0117721
59093	-0.000783182	0.0117903
59137	-0.000859479	0.0118816
59181	-0.000783182	0.0117638
59225	-0.00106929	0.0117919
59269	-0.000992997	0.0118471
59313	-0.000897627	0.0118092
59357	-0.000897627	0.0118684
59401	-0.000935775	0.0118277
59445	-0.000764108	0.0118771
59489	-0.000802256	0.0119557
59533	-0.000802256	0.011908
59577	-0.000897627	0.0119006
59621	-0.000764108	0.0119502
59665	-0.000897627	0.0119607
59709	-0.000878553	0.0119317
59753	-0.000783182	0.0119823
59797	-0.000859479	0.0119517
59841	-0.000897627	0.0120072
59885	-0.000916701	0.011977
59929	-0.000954849	0.0119464
59973	-0.000764108	0.0120863
60017	-0.000745034	0.0123189
60061	-0.000897627	0.0124579
60105	-0.000992997	0.0126036
60149	-0.000897627	0.0125929
60193	-0.000954849	0.0125487
60237	-0.000992997	0.0123233
60281	-0.000878553	0.0120772
60325	-0.000916701	0.0118702
60369	-0.000840404	0.0117873
60413	-0.000935775	0.0117074
60457	-0.000973923	0.0116595
60501	-0.000954849	0.011579
60545	-0.000802256	0.0115838
60589	-0.000935775	0.0114583
60633	-0.000859479	0.0114189
60677	-0.000878553	0.0113826
60721	-0.000935775	0.0113965
60765	-0.000935775	0.0114061
60809	-0.000859479	0.0115645
60853	-0.000954849	0.0114939
60897	-0.000935775	0.0115282
60941	-0.000840404	0.0114208
60985	-0.000992997	0.0114326
61029	-0.000840404	0.0114928
61073	-0.000916701	0.0115247
61117	-0.000897627	0.0115204
61161	-0.000840404	0.0114424
61205	-2.00082	-71.7615
61249	-2.00082	-15.9634
61293	-2.00091	-9.65712
61337	-2.00074	-7.07725
61381	-2.00093	-5.65592
61425	-2.00095	-4.76056
61469	-2.00093	-4.12765
61513	-2.00072	-3.66125
61557	-2.00093	-3.30194
61601	-2.00084	-3.01884
61645	-2.00084	-2.79142
61689	-2.00078	-2.60143
61733	-2.00101	-2.44263
61777	-2.00095	-2.30869
61821	-2.00087	-2.19112
61865	-2.00084	-2.08975
61909	-2.0008	-2.00244
61953	-2.00095	-1.92473
61997	-2.00093	-1.85551
62041	-2.00093	-1.79308
62085	-2.0007	-1.73568
62129	-0.00105022	3.62094
62173	-0.000783182	1.32837
62217	-0.000802256	0.842023
62261	-0.000802256	0.651983
62305	-0.000916701	0.550764
62349	-0.000897627	0.486438
62393	-0.000992997	0.438026
62437	-0.000840404	0.40276
62481	-0.000935775	0.374291
62525	-0.000802256	0.350867
62569	-0.00082133	0.33036
62613	-0.000878553	0.312517
62657	-0.000783182	0.296597
62701	-0.000859479	0.28257
62745	-0.00101207	0.270392
62789	-0.000916701	0.25931
62833	-0.000954849	0.248991
62877	-0.000973923	0.239888
62921	-0.000916701	0.231709
62965	-0.000745034	0.224179
63009	-0.000954849	0.217073
63053	-0.000802256	0.210894
63097	-0.000992997	0.204483
63141	-0.000840404	0.198118
63185	-0.000802256	0.191735
63229	-0.00082133	0.18556
63273	-0.000840404	0.179575
63317	-0.000935775	0.17413
63361	-0.00103115	0.168763
63405	-0.000935775	0.163844
63449	-0.000916701	0.159283
63493	-0.000878553	0.155137
63537	-0.000973923	0.151285
63581	-0.000897627	0.147528
63625	-0.000973923	0.143964
63669	-0.000954849	0.140792
63713	-0.00103115	0.138002
63757	-0.000992997	0.135174
63801	-0.00082133	0.132559
63845	-0.000859479	0.129657
63889	-0.000897627	0.126898
63933	-0.000916701	0.124614
63977	-0.000954849	0.122118
64021	-0.000935775	0.119781
64065	-0.000783182	0.11761
64109	-0.000973923	0.115527
64153	-0.000897627	0.113635
64197	-0.000973923	0.111862
64241	-0.000840404	0.110176
64285	-0.000840404	0.108549
64329	-0.000878553	0.107047
64373	-0.000992997	0.105814
64417	-0.000992997	0.104669
64461	-0.000878553	0.103474
64505	-0.000897627	0.102302
64549	-0.000935775	0.101075
64593	-0.00103115	0.0997416
64637	-0.000878553	0.0981875
64681	-0.00103115	0.0967452
64725	-0.000992997	0.0951622
64769	-0.000897627	0.093614
64800	-0.000878553	0.0931875