File: Data_33_Experiment/CA_268_045_minutes_C01.txt
time/s	Ewe/V	<I>/mA
1	1.49943	122.255
12	1.49951	28.0608
23	1.49947	22.5774
34	1.49941	21.0522
45	1.49943	20.6474
56	1.49945	20.3419
67	1.49955	19.5089
78	1.49953	18.0465
89	1.49951	16.4784
100	1.49949	15.1567
111	1.49941	14.2348
122	1.49962	13.426
133	1.49945	12.7898
144	1.49964	12.2581
155	1.49951	12.0032
166	1.49945	11.6497
177	1.49972	11.3463
188	1.49962	11.0959
199	1.49951	11.0234
210	1.49953	10.8295
221	1.49947	10.6482
232	1.49959	10.4808
243	1.49955	10.4847
254	1.49953	10.3595
265	1.49962	10.2378
276	1.49955	10.1157
287	1.49957	10.1122
298	1.49972	10.0097
309	1.49951	9.92563
320	1.49938	9.87409
331	1.49947	9.90643
342	1.49955	9.88076
353	1.49953	9.80247
364	1.49953	9.71168
375	1.49962	9.74355
386	1.49945	9.69163
397	1.49953	9.60871
408	1.49955	9.50009
419	1.49962	9.44343
430	1.49941	9.49136
441	1.49953	9.42493
452	1.49941	9.33899
463	1.49947	9.27759
474	1.49953	9.33631
485	1.49966	9.2985
496	1.49957	9.22456
507	1.49955	9.15837
518	1.49951	9.20964
529	1.49961	9.12911
540	1.49961	9.04975
551	1.4994	8.96252
562	1.49951	9.01405
573	1.49957	8.92507
584	1.49951	8.83881
595	1.49976	8.75576
606	1.49964	8.78383
617	1.49972	8.71413
628	1.49957	8.62687
639	1.49953	8.51615
650	1.49961	8.55078
661	1.49951	8.49583
672	1.49955	8.39858
683	1.49957	8.27735
694	1.49961	8.29226
705	1.49951	8.2372
716	1.49934	8.15235
727	1.49941	8.06371
738	1.4994	8.03808
749	1.49945	8.01549
760	1.4994	7.92293
771	1.49955	7.82806
782	1.49955	7.78235
793	1.49959	7.77914
804	1.49961	7.68957
815	1.49951	7.59391
826	1.49957	7.5307
837	1.49951	7.53828
848	1.49972	7.44311
859	1.49949	7.35333
870	1.49957	7.25985
881	1.49961	7.28005
892	1.49955	7.19235
903	1.49968	7.10842
914	1.49957	7.00258
925	1.49959	7.01706
936	1.49951	6.93549
947	1.49951	6.85612
958	1.49962	6.74285
969	1.49962	6.75786
980	1.49953	6.68951
991	1.49949	6.61179
1002	1.49961	6.50062
1013	1.49949	6.50747
1024	1.49961	6.45348
1035	1.49938	6.37326
1046	1.4997	6.27398
1057	1.49955	6.26427
1068	1.49953	6.22962
1079	1.49962	6.15361
1090	1.49959	6.06125
1101	1.49968	6.02885
1112	1.49947	6.0152
1123	1.49962	5.94306
1134	1.4997	5.86026
1145	1.49962	5.80947
1156	1.49961	5.81944
1167	1.49964	5.75277
1178	1.49945	5.67957
1189	1.49951	5.61338
1200	1.49947	5.6423
1211	1.49955	5.58001
1222	1.49955	5.5172
1233	1.49959	5.438
1244	1.49959	5.4807
1255	1.49968	5.42569
1266	1.49943	5.37129
1277	1.49943	5.28694
1288	1.49949	5.33615
1299	1.49947	5.2932
1310	1.49957	5.24105
1321	1.49951	5.15423
1332	1.49951	5.19773
1343	1.49949	5.16351
1354	1.49964	5.11536
1365	1.4997	5.02896
1376	1.49943	5.06411
1387	1.49961	5.04384
1398	1.49968	4.99819
1409	1.49966	4.92015
1420	1.49951	4.9379
1431	1.49955	4.93497
1442	1.49947	4.8666
1453	1.49953	4.79746
1464	1.49957	4.79193
1475	1.49949	4.8053
1486	1.49959	4.75923
1497	1.49951	4.69793
1508	1.49947	4.66989
1519	1.49951	4.70513
1530	1.49955	4.65883
1541	1.49936	4.60692
1552	1.49957	4.55958
1563	1.49949	4.60927
1574	1.49957	4.56491
1585	1.49953	4.51649
1596	1.49947	4.45088
1607	1.49964	4.50801
1618	1.49961	4.46447
1629	1.49938	4.41884
1640	1.49959	4.34274
1651	1.49961	4.40278
1662	1.49943	4.36396
1673	1.49947	4.32157
1684	1.49947	4.24014
1695	1.49953	4.29776
1706	1.49943	4.26936
1717	1.49945	4.22825
1728	1.49957	4.14522
1739	1.49947	4.18983
1750	1.49959	4.17327
1761	1.49943	4.13104
1772	1.49961	4.05267
1783	1.49945	4.07787
1794	1.49949	4.07353
1805	1.49959	4.03032
1816	1.49964	3.96063
1827	1.49951	3.96035
1838	1.49966	3.97379
1849	1.49957	3.93042
1860	1.49957	3.86888
1871	1.49966	3.8509
1882	1.49951	3.88515
1893	1.49962	3.84259
1904	1.49959	3.78726
1915	1.49961	3.74926
1926	1.49959	3.79799
1937	1.49957	3.75468
1948	1.49949	3.70759
1959	1.49957	3.65139
1970	1.49955	3.71222
1981	1.49961	3.67226
1992	1.49962	3.62685
2003	1.49953	3.54892
2014	1.49957	3.61077
2025	1.4993	3.57212
2036	1.49961	3.53146
2047	1.49947	3.45363
2058	1.49951	3.51674
2069	1.49953	3.48461
2080	1.49959	3.44619
2091	1.49962	3.3677
2102	1.49941	3.42499
2113	1.4997	3.40439
2124	1.49961	3.371
2135	1.49957	3.29531
2146	1.49955	3.34025
2157	1.49951	3.32985
2168	1.49957	3.29771
2179	1.49959	3.23067
2190	1.49943	3.26019
2201	1.49962	3.15744
2212	1.49955	3.30274
2223	1.49966	3.24462
2234	1.49962	3.251
2245	1.49968	3.27646
2256	1.49968	3.24571
2267	1.49953	3.19101
2278	1.49961	3.17169
2289	1.49966	3.21581
2300	1.49947	3.18317
2311	1.49953	3.13753
2322	1.49938	3.10986
2333	1.49961	3.13315
2344	1.49943	3.14894
2355	1.49959	3.11084
2366	1.49949	3.0576
2377	1.49947	3.13013
2388	1.4997	3.1005
2399	1.49955	3.06591
2410	1.49953	3.00111
2421	1.49949	3.07858
2432	1.49961	3.05169
2443	1.49961	3.01854
2454	1.49951	2.9461
2465	1.49961	3.01909
2476	1.49966	2.99778
2487	1.4997	2.96684
2498	1.49957	2.89683
2509	1.49953	2.9617
2520	1.49957	2.95382
2531	1.49949	2.9243
2542	1.49953	2.85688
2553	1.49951	2.90548
2564	1.49959	2.91216
2575	1.49966	2.88191
2586	1.4994	2.82137
2597	1.49961	2.84876
2608	1.49951	2.87354
2619	1.49957	2.84164
2630	1.49938	2.78845
2641	1.49953	2.79013
2652	1.49962	2.83595
2663	1.49949	2.80381
2674	1.49953	2.7577
2685	1.49943	2.73608
2696	1.49957	2.80162
2706.95	-0.000839594	-3.79248
2717.95	-0.00091589	-1.36951
2728.95	-0.000896816	-0.825991
2739.95	-0.000992187	-0.579856
2750.95	-0.000934964	-0.448811
2761.95	-0.000763297	-0.363314
2772.95	-0.000839594	-0.304523
2783.95	-0.00082052	-0.261132
2794.95	-0.000992187	-0.229562
2805.95	-0.000782372	-0.205535
2816.95	-0.000839594	-0.187031
2827.95	-0.000801446	-0.170858
2838.95	-0.000954038	-0.157581
2849.95	-0.000896816	-0.146612
2860.95	-0.000801446	-0.137573
2871.95	-0.00091589	-0.129051
2882.95	-0.00091589	-0.121528
2893.95	-0.00101126	-0.115051
2904.95	-0.000858668	-0.109683
2915.95	-0.000839594	-0.104221
2926.95	-0.000725149	-0.0993774
2937.95	-0.000992187	-0.095303
2948.95	-0.00091589	-0.0916672
2959.95	-0.000896816	-0.0882293
2970.95	-0.000992187	-0.0848257
2981.95	-0.000782372	-0.082105
2992.95	-0.000896816	-0.0794662
3003.95	-0.00101126	-0.0770415
3014.95	-0.00103033	-0.0747435
3025.95	-0.00091589	-0.0725899
3036.95	-0.000934964	-0.0706934
3047.95	-0.000934964	-0.0690193
3058.95	-0.000839594	-0.0670929
3069.95	-0.000954038	-0.0657185
3080.95	-0.000839594	-0.064198
3091.95	-0.000839594	-0.0629659
3102.95	-0.00103033	-0.0613637
3113.95	-0.000858668	-0.060142
3124.95	-0.000973113	-0.0589789
3135.95	-0.000858668	-0.0582237
3146.95	-0.000973113	-0.0568
3157.95	-0.000973113	-0.055905
3168.95	-0.00101126	-0.0550673
3179.95	-0.000954038	-0.0543582
3190.95	-0.000896816	-0.0532781
3201.95	-0.00091589	-0.052554
3212.95	-0.000896816	-0.0519261
3223.95	-0.00091589	-0.0513746
3234.95	-0.000877742	-0.0503763
3245.95	-0.00106848	-0.0499781
3256.95	-0.000896816	-0.0493782
3267.95	-0.00103033	-0.0491396
3278.95	-0.000877742	-0.0483711
3289.95	-0.00103033	-0.0480859
3300.95	-0.00082052	-0.0475195
3311.95	-0.000839594	-0.0471867
3322.95	-0.000973113	-0.0465162
3333.95	-0.00091589	-0.0461591
3344.95	-0.000858668	-0.0457841
3355.95	-0.000858668	-0.0454177
3366.95	-0.00091589	-0.0449647
3377.95	-0.000896816	-0.0445325
3388.95	-0.000954038	-0.0442375
3399.95	-0.000954038	-0.0439361
3410.95	-0.00082052	-0.0436203
3421.95	-0.000858668	-0.0432131
3432.95	-0.000763297	-0.0429796
3443.95	-0.000839594	-0.0426538
3454.95	-0.000801446	-0.0423274
3465.95	-0.000954038	-0.0419409
3476.95	-0.00091589	-0.0417642
3487.95	-0.000877742	-0.0415488
3498.95	-0.000782372	-0.0413577
3509.95	-0.00091589	-0.0409463
3520.95	-0.000782372	-0.0408724
3531.95	-0.000896816	-0.0405635
3542.95	-0.00082052	-0.0404814
3553.95	-0.000782372	-0.0399048
3564.95	-0.000801446	-0.0399112
3575.95	-0.000973113	-0.0397043
3586.95	-0.000839594	-0.0395454
3597.95	-0.000839594	-0.0391336
3608.95	-0.00091589	-0.0391546
3619.95	-0.000896816	-0.038838
3630.95	-0.000858668	-0.0388246
3641.95	-0.00091589	-0.0383491
3652.95	-0.00091589	-0.0384424
3663.95	-0.000896816	-0.0381284
3674.95	-0.00091589	-0.0380549
3685.95	-0.00082052	-0.0377011
3696.95	-0.000934964	-0.0377149
3707.95	-0.000858668	-0.0375428
3718.95	-0.000896816	-0.0373824
3729.95	-0.000896816	-0.0370458
3740.95	-0.000801446	-0.0371609
3751.95	-0.000839594	-0.0368627
3762.95	-0.000992187	-0.0367239
3773.95	-0.000992187	-0.0364748
3784.95	-0.00103033	-0.0363595
3795.95	-0.000877742	-0.0362747
3806.95	-0.000648853	-0.0361128
3817.95	-0.000934964	-0.0359303
3828.95	-0.000934964	-0.0358084
3839.95	-0.00082052	-0.0357136
3850.95	-0.00091589	-0.0354889
3861.95	-0.000744223	-0.0355338
3872.95	-0.00104941	-0.0352323
3883.95	-0.000839594	-0.0352699
3894.95	-0.000877742	-0.0349642
3905.95	-0.000992187	-0.0349104
3916.95	-0.000992187	-0.0346943
3927.95	-0.00091589	-0.034758
3938.95	-0.00091589	-0.0345322
3949.95	-0.000858668	-0.0345176
3960.95	-0.000839594	-0.0341656
3971.95	-0.000896816	-0.0343191
3982.95	-0.000992187	-0.0341755
3993.95	-0.000858668	-0.0341074
4004.95	-0.000763297	-0.0337312
4015.95	-0.000954038	-0.033878
4026.95	-0.000896816	-0.0336788
4037.95	-0.000934964	-0.0335048
4048.95	-0.000858668	-0.0331832
4059.95	-0.000877742	-0.0333652
4070.95	-0.000896816	-0.0331291
4081.95	-0.000973113	-0.0330141
4092.95	-0.000896816	-0.0327748
4103.95	-0.000973113	-0.0328644
4114.95	-0.000744223	-0.0327278
4125.95	-0.000763297	-0.0326825
4136.95	-0.000896816	-0.0324294
4147.95	-0.000858668	-0.032405
4158.95	-0.00103033	-0.032262
4169.95	-0.000954038	-0.0321379
4180.95	-0.000934964	-0.0320648
4191.95	-0.000896816	-0.0319816
4202.95	-0.000782372	-0.0319138
4213.95	-0.00104941	-0.0317439
4224.95	-0.00082052	-0.0315929
4235.95	-0.00091589	-0.0314725
4246.95	-0.000858668	-0.0314043
4257.95	-0.00082052	-0.031197
4268.95	-0.00103033	-0.0311635
4279.95	-0.000896816	-0.030924
4290.95	-0.000877742	-0.0309766
4301.95	-0.00082052	-0.030758
4312.95	-0.000954038	-0.0308261
4323.95	-0.000934964	-0.0305588
4334.95	-0.000877742	-0.0305823
4345.95	-0.000877742	-0.0304597
4356.95	-0.000934964	-0.0303717
4367.95	-0.000858668	-0.0300716
4378.95	-0.000934964	-0.0301952
4389.95	-0.00082052	-0.029971
4400.95	-0.00091589	-0.0300134
4411.95	-0.000858668	-0.0295894
4422.95	-0.00101126	-0.0297867
4433.95	-0.00103033	-0.0295485
4444.95	-0.000763297	-0.0295836
4455.95	-0.000782372	-0.0292179
4466.95	-0.000744223	-0.0294074
4477.95	-0.000934964	-0.0292296
4488.95	-0.000877742	-0.0292108
4499.95	-0.000973113	-0.029032
4510.95	-0.00082052	-0.0290474
4521.95	-0.000934964	-0.0288346
4532.95	-0.000934964	-0.0287363
4543.95	-0.000858668	-0.0285933
4554.95	-0.000839594	-0.0286354
4565.95	-0.000763297	-0.0285144
4576.95	-0.000858668	-0.028384
4587.95	-0.00082052	-0.0282935
4598.95	-0.000973113	-0.0282657
4609.95	-0.000839594	-0.0282029
4620.95	-0.000801446	-0.0280395
4631.95	-0.000858668	-0.0280328
4642.95	-0.000954038	-0.0278337
4653.95	-0.000782372	-0.0278549
4664.95	-0.00106848	-0.02775
4675.95	-0.00082052	-0.0277369
4686.95	-0.000782372	-0.0275181
4697.95	-0.000782372	-0.0276618
4708.95	-0.000973113	-0.0274327
4719.95	-0.000934964	-0.0274264
4730.95	-0.000934964	-0.0271962
4741.95	-0.000763297	-0.0273155
4752.95	-0.000896816	-0.0271104
4763.95	-0.00091589	-0.0271357
4774.95	-0.000801446	-0.0267604
4785.95	-0.000896816	-0.0269605
4796.95	-0.000858668	-0.0268408
4807.95	-0.000896816	-0.0267239
4818.95	-0.000763297	-0.0264582
4829.95	-0.000973113	-0.0265461
4840.95	-0.000801446	-0.0263911
4851.95	-0.000934964	-0.0263534
4862.95	-0.00106848	-0.0262079
4873.95	-0.00082052	-0.0262681
4884.95	-0.00082052	-0.0260948
4895.95	-0.000858668	-0.0260371
4906.95	-0.00091589	-0.0259733
4917.95	-0.000858668	-0.0258663
4928.95	-0.000954038	-0.0258424
4939.95	-0.000801446	-0.0257084
4950.95	-0.000763297	-0.0255604
4961.95	-0.000839594	-0.0255067
4972.95	-0.000954038	-0.0255017
4983.95	-0.00091589	-0.0254295
4994.95	-0.000954038	-0.0253188
5005.95	-0.000877742	-0.0250726
5016.95	-0.000877742	-0.0252342
5027.95	-0.00091589	-0.0249956
5038.95	-0.000801446	-0.0249592
5049.95	-0.000934964	-0.024644
5060.95	-0.000877742	-0.0250101
5071.95	-0.000839594	-0.0246743
5082.95	-0.000839594	-0.0247077
5093.95	-0.000934964	-0.0244344
5104.95	-0.00082052	-0.0246761
5115.95	-0.000839594	-0.0244188
5126.95	-0.000744223	-0.0243877
5137.95	-0.000934964	-0.0242154
5148.95	-0.000725149	-0.0242688
5159.95	-0.000934964	-0.0241017
5170.95	-0.000896816	-0.0240278
5181.95	-0.000839594	-0.0237639
5192.95	-0.000954038	-0.0239525
5203.95	-0.000973113	-0.023806
5214.95	-0.00082052	-0.0236673
5225.95	-0.00091589	-0.0234526
5236.95	-0.00101126	-0.0235822
5247.95	-0.00082052	-0.023545
5258.95	-0.00101126	-0.0233789
5269.95	-0.000973113	-0.0231852
5280.95	-0.000954038	-0.0232412
5291.95	-0.000801446	-0.0231694
5302.95	-0.000934964	-0.0230087
5313.95	-0.000973113	-0.0229502
5324.95	-0.000954038	-0.0229041
5335.95	-0.00091589	-0.0230096
5346.95	-0.000782372	-0.0228066
5357.95	-0.000973113	-0.0228627
5368.95	-0.00103033	-0.0225281
5379.95	-0.00104941	-0.0227763
5390.95	-0.000763297	-0.0225839
5401.95	-0.000858668	-0.0225664
5412.95	-0.000858668	-0.0223043
5423.95	-0.000877742	-0.0224635
5434.95	-0.000877742	-0.0223618
5445.95	-0.00104941	-0.0223934
5456.95	-0.000839594	-0.022056
5467.95	-0.000858668	-0.0223161
5478.95	-0.00082052	-0.0220961
5489.95	-0.000782372	-0.0221239
5500.95	-0.00091589	-0.0217707
5511.95	-0.00091589	-0.021942
5522.95	-0.000896816	-0.021822
5533.95	-0.000801446	-0.0217374
5544.95	-0.000858668	-0.0214246
5555.95	-0.000954038	-0.0215677
5566.95	-0.000839594	-0.0214041
5577.95	-0.000934964	-0.0213721
5588.95	-0.00082052	-0.0212158
5599.95	-0.000858668	-0.0212632
5610.95	-0.00091589	-0.0211717
5621.95	-0.000839594	-0.0211092
5632.95	-0.000877742	-0.0209291
5643.95	-0.00082052	-0.021054
5654.95	-0.000763297	-0.0209885
5665.95	-0.000896816	-0.0208721
5676.95	-0.000839594	-0.0207736
5687.95	-0.00082052	-0.0206666
5698.95	-0.000896816	-0.0207664
5709.95	-0.00082052	-0.0205127
5720.95	-0.00106848	-0.0205777
5731.95	-0.000877742	-0.0203275
5742.95	-0.00082052	-0.020382
5753.95	-0.000763297	-0.0202745
5764.95	-0.000763297	-0.0202981
5775.95	-0.00106848	-0.0198966
5786.95	-0.00104941	-0.0201886
5797.95	-0.000706075	-0.0199657
5808.95	-0.00103033	-0.0199665
5819.95	-0.00104941	-0.019529
5830.95	-0.000858668	-0.019918
5841.95	-0.000934964	-0.0197445
5852.95	-0.000896816	-0.0197503
5863.95	-0.000839594	-0.0194824
5874.95	-0.000858668	-0.0196879
5885.95	-0.00103033	-0.0195885
5896.95	-0.000839594	-0.0196623
5907.95	-0.000782372	-0.0193832
5918.95	-0.000858668	-0.0195074
5929.95	-0.000839594	-0.0194407
5940.95	-0.000858668	-0.019395
5951.95	-0.000858668	-0.0191788
5962.95	-0.000973113	-0.0192132
5973.95	-0.000763297	-0.0191336
5984.95	-0.00106848	-0.0191736
5995.95	-0.000877742	-0.0189699
6006.95	-0.000858668	-0.0188934
6017.95	-0.000782372	-0.0189736
6028.95	-0.000839594	-0.0187782
6039.95	-0.000896816	-0.0186563
6050.95	-0.000877742	-0.0185709
6061.95	-0.000896816	-0.0186055
6072.95	-0.000877742	-0.0185493
6083.95	-0.000954038	-0.018528
6094.95	-0.000877742	-0.0183333
6105.95	-0.000839594	-0.0185197
6116.95	-0.000839594	-0.0183865
6127.95	-0.00082052	-0.0183627
6138.95	-0.000992187	-0.0180586
6149.95	-0.00103033	-0.0183212
6160.95	-0.000877742	-0.0181719
6171.95	-0.00082052	-0.0182066
6182.95	-0.000973113	-0.0178975
6193.95	-0.000801446	-0.0181146
6204.95	-0.000877742	-0.018012
6215.95	-0.000896816	-0.0179888
6226.95	-0.000896816	-0.0176789
6237.95	-0.000839594	-0.0179728
6248.95	-0.000858668	-0.0176552
6259.95	-0.000992187	-0.0177748
6270.95	-0.000839594	-0.0174919
6281.95	-0.00091589	-0.0177028
6292.95	-0.000858668	-0.0175321
6303.95	-0.000858668	-0.0174644
6314.95	-0.00101126	-0.0173057
6325.95	-0.000896816	-0.0173781
6336.95	-0.000839594	-0.017309
6347.95	-0.00091589	-0.0172436
6358.95	-0.000934964	-0.0170758
6369.95	-0.000973113	-0.0170915
6380.95	-0.00101126	-0.0170663
6391.95	-0.000896816	-0.0169245
6402.95	-0.000896816	-0.0169308
6413.95	-0.00091589	-0.0168154
6424.95	-0.00091589	-0.0168464
6435.95	-0.000839594	-0.0168284
6446.95	-0.000954038	-0.0167877
6457.95	-0.000839594	-0.0165196
6468.95	-0.000934964	-0.0167406
6479.95	-0.000763297	-0.0166655
6490.95	-0.000973113	-0.0166015
6501.95	-0.00091589	-0.0162575
6512.95	-0.000744223	-0.0166401
6523.95	-0.00091589	-0.0165906
6534.95	-0.000877742	-0.0164572
6545.95	-0.000973113	-0.0162474
6556.95	-0.000877742	-0.0164705
6567.95	-0.000954038	-0.0163457
6578.95	-0.000801446	-0.0163856
6589.95	-0.000877742	-0.0160327
6600.95	-0.000934964	-0.0162552
6611.95	-0.000858668	-0.0161023
6622.95	-0.000839594	-0.0161914
6633.95	-0.000896816	-0.0159345
6644.95	-0.000877742	-0.0161061
6655.95	-0.000839594	-0.0159953
6666.95	-0.000839594	-0.016046
6677.95	-0.000877742	-0.0157113
6688.95	-0.000782372	-0.0158939
6699.95	-0.000858668	-0.015744
6710.95	-0.000934964	-0.0157007
6721.95	-0.000839594	-0.0154493
6732.95	-0.000877742	-0.0155646
6743.95	-0.000839594	-0.0155451
6754.95	-0.000954038	-0.0155276
6765.95	-0.000801446	-0.015371
6776.95	-0.000763297	-0.0152759
6787.95	-0.000896816	-0.015289
6798.95	-0.000858668	-0.0153146
6809.95	-0.000896816	-0.0152379
6820.95	-0.000896816	-0.0149016
6831.95	-0.00091589	-0.0150358
6842.95	-0.00091589	-0.0149838
6853.95	-0.000896816	-0.0148573
6864.95	-0.000954038	-0.0146302
6875.95	-0.00103033	-0.0148958
6886.95	-0.00091589	-0.0147639
6897.95	-0.000858668	-0.0147496
6908.95	-0.00101126	-0.0143367
6919.95	-0.00082052	-0.0146422
6930.95	-0.000877742	-0.0143909
6941.95	-0.000934964	-0.0144321
6952.95	-0.000934964	-0.0141563
6963.95	-0.000954038	-0.014306
6974.95	-0.000896816	-0.0142812
6985.95	-0.00082052	-0.0140393
6996.95	-0.000877742	-0.013843
7007.95	-0.000858668	-0.0140623
7018.95	-0.000992187	-0.0140326
7029.95	-0.000934964	-0.0139265
7040.95	-0.00091589	-0.0136917
7051.95	-0.000782372	-0.0138227
7062.95	-0.000877742	-0.0137367
7073.95	-0.000763297	-0.0137101
7084.95	-0.00103033	-0.0134924
7095.95	-0.000858668	-0.0135313
7106.95	-0.000839594	-0.0135245
7117.95	-0.000896816	-0.0133214
7128.95	-0.000839594	-0.0132685
7139.95	-0.000973113	-0.0133106
7150.95	-0.00106848	-0.0133016
7161.95	-0.00091589	-0.0131611
7172.95	-0.000973113	-0.0131827
7183.95	-0.000896816	-0.012917
7194.95	-0.00101126	-0.0129847
7205.95	-0.000801446	-0.0129922
7216.95	-0.000896816	-0.0128918
7227.95	-0.000992187	-0.0126203
7238.95	-0.000954038	-0.0128523
7249.95	-0.00091589	-0.0125895
7260.95	-0.000858668	-0.0127795
7271.95	-0.000801446	-0.0123373
7282.95	-0.000973113	-0.0125844
7293.95	-0.00104941	-0.0124773
7304.95	-0.00104941	-0.0124536
7315.95	-0.000934964	-0.0121212
7326.95	-0.000839594	-0.0123392
7337.95	-0.000858668	-0.0122839
7348.95	-0.000896816	-0.0121616
7359.95	-0.00091589	-0.0118873
7370.95	-0.00104941	-0.0121186
7381.95	-0.000877742	-0.0119855
7392.95	-0.000934964	-0.0119483
7403.95	-0.00103033	-0.0116999
7414.95	-0.000782372	-0.01181
7425.95	-0.000877742	-0.0118125
7436.95	-0.000858668	-0.011745
7447.95	-0.000954038	-0.0114998
7458.95	-0.000896816	-0.0116891
7469.95	-0.00082052	-0.011793
7480.95	-0.000839594	-0.0115509
7491.95	-0.000934964	-0.0114123
7502.95	-0.000896816	-0.0113769
7513.95	-0.000877742	-0.0114804
7524.95	-0.000877742	-0.0113695
7535.95	-0.000877742	-0.0113698
7546.95	-0.000782372	-0.0111437
7557.95	-0.00082052	-0.0113594
7568.95	-0.000877742	-0.0112411
7579.95	-0.000858668	-0.0112527
7590.95	-0.00082052	-0.0111431
7601.95	-0.00082052	-0.0112687
7612.95	-0.000839594	-0.0111532
7623.95	-0.000973113	-0.0110972
7634.95	-0.000934964	-0.0108399
7645.95	-0.000992187	-0.0111255
7656.95	-0.000992187	-0.0110001
7667.95	-0.000954038	-0.0109411
7678.95	-0.00104941	-0.0105923
7689.95	-0.000877742	-0.0108965
7700.95	-0.00101126	-0.0106803
7711.95	-0.000954038	-0.0106705
7722.95	-0.000934964	-0.0104754
7733.95	-0.00082052	-0.0106585
7744.95	-0.000954038	-0.010654
7755.95	-0.000934964	-0.0106024
7766.95	-0.000839594	-0.0102476
7777.95	-0.000858668	-0.0105237
7788.95	-0.00091589	-0.0104589
7799.95	-0.000934964	-0.0103845
7810.95	-0.00091589	-0.0102187
7821.95	-0.00091589	-0.0102866
7832.95	-0.00082052	-0.0102127
7843.95	-0.000896816	-0.0102515
7854.95	-0.000877742	-0.0100614
7865.95	-0.00110663	-0.00998628
7876.95	-0.00101126	-0.0102184
7887.95	-0.000992187	-0.00996852
7898.95	-0.000763297	-0.00992196
7909.95	-0.00091589	-0.00985992
7920.95	-0.00106848	-0.00992644
7931.95	-0.000954038	-0.0099018
7942.95	-0.00082052	-0.00989775
7953.95	-0.000954038	-0.00939071
7964.95	-0.00101126	-0.00960454
7975.95	-0.000992187	-0.00973768
7986.95	-0.00091589	-0.00968416
7997.95	-0.00082052	-0.00936104
8008.95	-0.000934964	-0.00959221
8019.95	-0.000858668	-0.00962361
8030.95	-0.000973113	-0.0095174
8041.95	-0.000934964	-0.00913266
8052.95	-0.00091589	-0.0095194
8063.95	-0.00091589	-0.00929874
8074.95	-0.000954038	-0.009306
8085.95	-0.00091589	-0.00895191
8096.95	-0.000801446	-0.00925345
8107.95	-0.000973113	-0.00920319
8118.95	-0.000877742	-0.00929004
8129.95	-0.000839594	-0.00887999
8140.95	-0.000782372	-0.00902767
8151.95	-0.000877742	-0.00907862
8162.95	-0.000934964	-0.00905618
8173.95	-0.000934964	-0.00886028
8184.95	-0.000782372	-0.00890891
8195.95	-0.00091589	-0.0088841
8206.95	-0.000782372	-0.00877946
8217.95	-0.000744223	-0.008665
8228.95	-0.000839594	-0.0086461
8239.95	-0.000877742	-0.00858913
8250.95	-0.000973113	-0.00846197
8261.95	-0.000858668	-0.00823197
8272.95	-0.000934964	-0.00822712
8283.95	-0.000858668	-0.00837475
8294.95	-0.000934964	-0.00818546
8305.95	-0.000877742	-0.00817141
8316.95	-0.00091589	-0.00787518
8327.95	-0.000992187	-0.00804716
8338.95	-0.00091589	-0.00792871
8349.95	-0.000877742	-0.00802868
8360.95	-0.00106848	-0.00757926
8371.95	-0.00103033	-0.00785482
8382.95	-0.000858668	-0.0076829
8393.95	-0.00101126	-0.00759831
8404.95	-0.000954038	-0.00741965
8415.95	-0.00091589	-0.00767088
8426.95	-0.000992187	-0.00757398
8437.95	-0.000877742	-0.00753604
8448.95	-0.000973113	-0.00728849
8459.95	-0.00091589	-0.00759888
8470.95	-0.000858668	-0.007468
8481.95	-0.000896816	-0.00748565
8492.95	-0.000934964	-0.00727892
8503.95	-0.000858668	-0.00743913
8514.95	-0.000896816	-0.00749861
8525.95	-0.000744223	-0.00757442
8536.95	-0.000934964	-0.00733228
8547.95	-0.000954038	-0.0074432
8558.95	-0.00082052	-0.0074938
8569.95	-0.000954038	-0.00738905
8580.95	-0.000858668	-0.00728568
8591.95	-0.00108756	-0.00730416
8602.95	-0.000896816	-0.00723452
8613.95	-0.000896816	-0.00718485
8624.95	-0.000973113	-0.00724887
8635.95	-0.000896816	-0.00697027
8646.95	-0.000896816	-0.00716226
8657.95	-0.000934964	-0.00700398
8668.95	-0.000896816	-0.00700133
8679.95	-0.000896816	-0.0067375
8690.95	-0.000858668	-0.00691799
8701.95	-0.000858668	-0.00678219
8712.95	-0.000896816	-0.00684729
8723.95	-0.000896816	-0.00644368
8734.95	-0.000858668	-0.00673341
8745.95	-0.000954038	-0.00666623
8756.95	-0.00106848	-0.00660333
8767.95	-0.000896816	-0.00608415
8778.95	-0.000839594	-0.00642998
8789.95	-0.00091589	-0.00633546
8800.95	-0.00091589	-0.00633661
8811.95	-0.000877742	-0.00589496
8822.95	-0.000858668	-0.00636057
8833.95	-0.000954038	-0.0062078
8844.95	-0.00091589	-0.00610951
8855.95	-0.000858668	-0.00582473
8866.95	-0.000687001	-0.00601868
8877.95	-0.000877742	-0.00597607
8888.95	-0.000992187	-0.00603222
8899.95	-0.000954038	-0.00573807
8910.95	-0.000839594	-0.00593534
8921.95	-0.000858668	-0.00593348
8932.95	-0.000954038	-0.00594661
8943.95	-0.00101126	-0.00583248
8954.95	-0.000954038	-0.00581199
8965.95	-0.00110663	-0.00594325
8976.95	-0.00101126	-0.00580528
8987.95	-0.000877742	-0.00570039
8998.95	-0.000839594	-0.00546465
9009.95	-0.000973113	-0.0056387
9020.95	-0.000934964	-0.00554356
9031.95	-0.000877742	-0.00545893
9042.95	-0.000763297	-0.00522771
9053.95	-0.000877742	-0.00528974
9064.95	-0.000934964	-0.00518197
9075.95	-0.00082052	-0.00521806
9086.95	-0.000858668	-0.00478281
9097.95	-0.000858668	-0.00507199
9108.95	-0.000763297	-0.00497695
9119.95	-0.000801446	-0.00488885
9130.95	-0.000801446	-0.004397
9141.95	-0.000877742	-0.00470432
9152.95	-0.00091589	-0.00465827
9163.95	-0.000667927	-0.00462575
9174.95	-0.00091589	-0.0042517
9185.95	-0.000973113	-0.00451159
9196.95	-0.000801446	-0.00452204
9207.95	-0.000896816	-0.00450543
9218.95	-0.000896816	-0.00414793
9229.95	-0.000801446	-0.00438325
9240.95	-0.00082052	-0.00435387
9251.95	-0.000877742	-0.00433403
9262.95	-0.00082052	-0.00414435
9273.95	-0.00082052	-0.00421703
9284.95	-0.000858668	-0.00419265
9295.95	-0.000934964	-0.00410034
9306.95	-0.000858668	-0.00399182
9317.95	-0.000801446	-0.00405523
9328.95	-0.000896816	-0.00416721
9339.95	-0.000896816	-0.00408368
9350.95	-0.00091589	-0.00399666
9361.95	-0.000896816	-0.00388453
9372.95	-0.000954038	-0.00407994
9383.95	-0.00091589	-0.00402177
9394.95	-0.000877742	-0.00389468
9405.95	-0.000992187	-0.00359947
9416.95	-0.000973113	-0.00390807
9427.95	-0.000992187	-0.00389341
9438.95	-0.000839594	-0.00385599
9449.95	-0.000992187	-0.00353445
9460.95	-0.000744223	-0.00380777
9471.95	-0.000839594	-0.00368026
9482.95	-0.000877742	-0.0036658
9493.95	-0.000954038	-0.00340081
9504.95	-0.000992187	-0.00366037
9515.95	-0.00101126	-0.00346784
9526.95	-0.000896816	-0.00361857
9537.95	-0.000896816	-0.00323021
9548.95	-0.00091589	-0.00350672
9559.95	-0.000992187	-0.0034805
9570.95	-0.000973113	-0.00340539
9581.95	-0.000934964	-0.00315852
9592.95	-0.000934964	-0.00328544
9603.95	-0.000839594	-0.00334121
9614.95	-0.000973113	-0.00330464
9625.95	-0.000877742	-0.00304082
9636.95	-0.000877742	-0.00323455
9647.95	-0.000858668	-0.00320196
9658.95	-0.000992187	-0.0031326
9669.95	-0.000839594	-0.00308002
9680.95	-0.000877742	-0.00302393
9691.95	-0.000877742	-0.00309672
9702.95	-0.00091589	-0.0029964
9713.95	-0.00082052	-0.00296268
9724.95	-0.000801446	-0.00280688
9735.95	-0.00082052	-0.00294058
9746.95	-0.000858668	-0.00282396
9757.95	-0.000839594	-0.00287956
9768.95	-0.000992187	-0.00256716
9779.95	-0.00091589	-0.00277664
9790.95	-0.000896816	-0.0027184
9801.95	-0.000858668	-0.00261556
9812.95	-0.000992187	-0.00236534
9823.95	-0.000896816	-0.00257792
9834.95	-0.000896816	-0.0024327
9845.95	-0.000896816	-0.00246146
9856.95	-0.000877742	-0.00207226
9867.95	-0.000973113	-0.00243619
9878.95	-0.00091589	-0.00230816
9889.95	-0.00082052	-0.00228153
9900.95	-0.000973113	-0.0019717
9911.95	-0.000839594	-0.00227639
9922.95	-0.000896816	-0.00215401
9933.95	-0.00106848	-0.00213728
9944.95	-0.00091589	-0.00182692
9955.95	-0.000934964	-0.00203694
9966.95	-0.000858668	-0.00192933
9977.95	-0.000858668	-0.001974
9988.95	-0.000896816	-0.00179936
9999.95	-0.000934964	-0.00187272
10011	-0.000877742	-0.00181774
10022	-0.000934964	-0.00188018
10033	-0.000877742	-0.00177118
10044	-0.00108756	-0.0016761
10055	-0.000839594	-0.0018522
10066	-0.000934964	-0.00174069
10077	-0.00082052	-0.00169465
10088	-0.000858668	-0.00162018
10099	-0.000763297	-0.00175685
10110	-0.000877742	-0.00168246
10121	-0.000839594	-0.00162752
10132	-0.00091589	-0.00141943
10143	-0.00091589	-0.00173896
10154	-0.000839594	-0.00157617
10165	-0.000973113	-0.00153844
10176	-0.000877742	-0.00124342
10187	-0.000992187	-0.00156606
10198	-0.000877742	-0.00138145
10209	-0.000973113	-0.00148378
10220	-0.000858668	-0.0011027
10231	-0.000858668	-0.00133406
10242	-0.00091589	-0.0013839
10253	-0.000877742	-0.00143054
10264	-0.00082052	-0.00110649
10275	-0.000896816	-0.00131298
10286	-0.000992187	-0.00122047
10297	-0.000973113	-0.00132118
10308	-0.000934964	-0.000929699
10319	-0.000877742	-0.00123544
10330	-0.00082052	-0.00129831
10341	-0.000858668	-0.00111616
10352	-0.000858668	-0.000984464
10363	-0.00091589	-0.00111547
10374	-0.000877742	-0.00118454
10385	-0.000934964	-0.00105798
10396	-0.00082052	-0.000943825
10407	-0.00104941	-0.000900441
10418	-0.000896816	-0.00114335
10429	-0.000934964	-0.00100329
10440	-0.000801446	-0.000951717
10451	-0.000877742	-0.000731274
10462	-0.000934964	-0.000849834
10473	-0.000896816	-0.00084672
10484	-0.00091589	-0.000791819
10495	-0.00082052	-0.000661367
10506	-0.000782372	-0.000815228
10517	-0.000954038	-0.000721845
10528	-0.000954038	-0.000751687
10539	-0.00091589	-0.000378121
10550	-0.000801446	-0.000684082
10561	-0.000992187	-0.000584737
10572	-0.000934964	-0.000606009
10583	-0.00082052	-0.000221533
10594	-0.000801446	-0.000555173
10605	-0.000839594	-0.00047368
10616	-0.000858668	-0.00058965
10627	-0.000629779	-0.000118981
10638	-0.000839594	-0.000505773
10649	-0.00082052	-0.000430956
10660	-0.000839594	-0.000474321
10671	-0.000877742	-0.000108955
10682	-0.00091589	-0.00047897
10693	-0.000858668	-0.000295791
10704	-0.00103033	-0.00042072
10715	-0.000839594	-0.000205093
10726	-0.00091589	-0.000336311
10737	-0.000725149	-0.000327604
10748	-0.000896816	-0.000446669
10759	-0.000744223	-0.000198581
10770	-0.000954038	-0.000170611
10781	-0.000839594	-0.000341137
10792	-0.000954038	-0.000311582
10803	-0.000934964	-0.000117743
10814	-0.000858668	-9.68445e-05
10825	-0.000839594	-0.000221698
10836	-0.00082052	-0.000140942
10847	-0.000954038	-1.51419e-05
10858	-0.000858668	2.84446e-05
10869	-0.000839594	-8.12016e-05
10880	-0.000877742	8.46767e-06
10891	-0.00101126	4.64653e-06
10902	-0.000782372	9.43181e-05
10913	-0.000954038	1.31566e-05
10924	-0.000877742	5.25891e-05
10935	-0.000839594	9.54263e-05
10946	-0.000858668	0.000329757
10957	-0.000877742	9.91698e-06
10968	-0.000801446	0.000129959
10979	-0.000839594	0.00012765
10990	-0.000858668	0.000382183
11001	-0.00082052	0.000221113
11012	-0.00103033	0.000230238
11023	-0.00106848	0.000239658
11034	-0.000877742	0.000460986
11045	-0.000782372	0.000256939
11056	-0.00103033	0.000371272
11067	-0.000877742	0.000412929
11078	-0.00091589	0.000563716
11089	-0.00101126	0.000464217
11100	-0.000858668	0.000464683
11111	-0.000839594	0.000571192
11122	-0.00082052	0.000615411
11133	-0.000763297	0.000643386
11144	-0.000877742	0.000547819
11155	-0.000954038	0.000690834
11166	-0.00082052	0.000722927
11177	-0.00103033	0.000869148
11188	-0.000877742	0.000769586
11199	-0.00101126	0.00085026
11210	-0.000896816	0.000854602
11221	-0.000877742	0.00116707
11232	-0.000858668	0.000891433
11243	-0.000877742	0.0011588
11254	-0.000744223	0.00106423
11265	-0.00082052	0.00139377
11276	-0.000877742	0.00112452
11287	-0.000934964	0.00123915
11298	-0.000763297	0.0011836
11309	-0.00106848	0.00157631
11320	-0.000896816	0.00137094
11331	-0.000992187	0.00144897
11342	-0.00091589	0.00150641
11353	-0.000877742	0.00179057
11364	-0.000858668	0.00153202
11375	-0.00106848	0.00165814
11386	-0.00082052	0.00154511
11397	-0.000858668	0.00195912
11408	-0.000858668	0.00167318
11419	-0.000934964	0.00180995
11430	-0.00101126	0.00182892
11441	-0.00101126	0.00199727
11452	-0.00101126	0.00192591
11463	-0.000763297	0.00190437
11474	-0.000934964	0.0017914
11485	-0.000934964	0.0019097
11496	-0.000896816	0.00199601
11507	-0.000973113	0.00192451
11518	-0.000896816	0.00196187
11529	-0.00091589	0.00200128
11540	-0.000992187	0.0021532
11551	-0.000896816	0.00200452
11562	-0.00103033	0.00200345
11573	-0.000877742	0.00205335
11584	-0.000934964	0.00222171
11595	-0.000801446	0.00196341
11606	-0.000934964	0.0021421
11617	-0.000858668	0.00206606
11628	-0.00082052	0.00239368
11639	-0.000801446	0.00210048
11650	-0.000954038	0.00212751
11661	-0.000954038	0.00211436
11672	-0.000858668	0.00247296
11683	-0.00091589	0.00216151
11694	-0.000934964	0.0021679
11705	-2.00089	-82.9165
11716	-2.00078	-61.3305
11727	-2.00099	-45.9569
11738	-2.00087	-36.6589
11749	-2.00085	-30.1208
11760	-2.00084	-25.3978
11771	-2.00095	-21.8895
11782	-2.00097	-19.2356
11793	-2.00095	-17.1777
11804	-2.00089	-15.523
11815	-2.00089	-14.1817
11826	-2.00085	-13.0622
11837	-2.00085	-12.1205
11848	-2.00087	-11.3143
11859	-2.00078	-10.6127
11870	-2.00091	-10.024
11881	-2.00097	-9.49515
11892	-2.00082	-9.01211
11903	-2.00095	-8.58975
11914	-2.00085	-8.20151
11925	-2.00091	-7.84101
11936	-2.00087	-7.54722
11947	-2.00095	-7.26577
11958	-2.00076	-7.0162
11969	-2.00085	-6.78214
11980	-2.00087	-6.5711
11991	-2.00093	-6.38434
12002	-2.00076	-6.1999
12013	-2.00089	-6.03694
12024	-2.00091	-5.86142
12035	-2.00095	-5.69467
12046	-2.00084	-5.55346
12057	-2.00085	-5.4302
12068	-2.00089	-5.2956
12079	-2.00084	-5.18046
12090	-2.00089	-5.0768
12101	-2.00082	-4.98533
12112	-2.00089	-4.88534
12123	-2.0008	-4.81213
12134	-2.00082	-4.71967
12145	-2.00085	-4.62589
12156	-2.00095	-4.5208
12167	-2.00084	-4.45849
12178	-2.0008	-4.38878
12189	-2.00082	-4.29378
12200	-2.00089	-4.1901
12211	-2.00089	-4.18281
12222	-2.00091	-4.12919
12233	-2.00095	-4.07847
12244	-2.00085	-4.04002
12255	-2.00091	-3.97341
12266	-2.00076	-3.96144
12277	-2.00095	-3.92074
12288	-2.00095	-3.86037
12299	-2.00093	-3.81538
12310	-2.00091	-3.76361
12321	-2.00076	-3.72573
12332	-2.00082	-3.68353
12343	-2.00085	-3.6417
12354	-2.00082	-3.58722
12365	-2.00085	-3.5546
12376	-2.00103	-3.51418
12387	-2.00076	-3.48368
12398	-2.0008	-3.44306
12409	-2.00087	-3.42738
12420	-2.00091	-3.38183
12431	-2.00097	-3.33772
12442	-2.00089	-3.31884
12453	-2.00085	-3.2762
12464	-2.00091	-3.2511
12475	-2.00084	-3.21046
12486	-2.00087	-3.19595
12497	-2.00078	-3.14465
12508	-2.00089	-3.13295
12519	-2.00087	-3.11631
12530	-2.0008	-3.1156
12541	-2.00093	-3.09387
12552	-2.00095	-3.06887
12563	-2.00091	-3.0424
12574	-2.00082	-3.02529
12585	-2.00095	-2.92656
12596	-2.00084	-2.33368
12607	-0.000858668	18.6403
12618	-0.000934964	5.25834
12629	-0.000954038	2.86549
12640	-0.000763297	1.93658
12651	-0.000973113	1.46097
12662	-0.000992187	1.18286
12673	-0.000934964	0.997902
12684	-0.00091589	0.86695
12695	-0.000858668	0.775265
12706	-0.000934964	0.705913
12717	-0.00082052	0.651694
12728	-0.000801446	0.603753
12739	-0.00101126	0.56813
12750	-0.000973113	0.537924
12761	-0.000934964	0.513072
12772	-0.000801446	0.487768
12783	-0.00110663	0.466625
12794	-0.000877742	0.449354
12805	-0.000934964	0.435345
12816	-0.00091589	0.41846
12827	-0.000744223	0.406286
12838	-0.000629779	0.395492
12849	-0.00091589	0.386284
12860	-0.00091589	0.374386
12871	-0.00082052	0.366106
12882	-0.000858668	0.357945
12893	-0.00082052	0.351797
12904	-0.00091589	0.343068
12915	-0.00103033	0.336394
12926	-0.000877742	0.330455
12937	-0.000744223	0.32601
12948	-0.000858668	0.31908
12959	-0.000954038	0.313768
12970	-0.000896816	0.309165
12981	-0.00082052	0.305256
12992	-0.000992187	0.300353
13003	-0.000877742	0.295434
13014	-0.00091589	0.291876
13025	-0.000858668	0.288616
13036	-0.000839594	0.284703
13047	-0.00091589	0.280485
13058	-0.00082052	0.277516
13069	-0.00091589	0.274545
13080	-0.000992187	0.271839
13091	-0.000801446	0.267885
13102	-0.000763297	0.265307
13113	-0.000744223	0.262808
13124	-0.000801446	0.260575
13135	-0.000744223	0.256753
13146	-0.000934964	0.254662
13157	-0.000992187	0.252177
13168	-0.000992187	0.25098
13179	-0.000877742	0.246983
13190	-0.000896816	0.245096
13201	-0.000839594	0.242863
13212	-0.00106848	0.241838
13223	-0.000973113	0.238298
13234	-0.00101126	0.236398
13245	-0.000973113	0.234356
13256	-0.000896816	0.233244
13267	-0.000801446	0.22985
13278	-0.000858668	0.227986
13289	-0.000973113	0.225984
13300	-0.00082052	0.224743
13311	-0.00101126	0.221918
13322	-0.000954038	0.219865
13333	-0.00091589	0.21805
13344	-0.000858668	0.21688
13355	-0.000992187	0.214532
13366	-0.00110663	0.212373
13377	-0.00101126	0.210781
13388	-0.000782372	0.209313
13399	-0.00091589	0.207493
13410	-0.00104941	0.204782
13421	-0.00101126	0.20359
13432	-0.00103033	0.201939
13443	-0.000973113	0.200547
13454	-0.000934964	0.198118
13465	-0.00101126	0.196728
13476	-0.000877742	0.19523
13487	-0.000973113	0.194475
13498	-0.000858668	0.191412
13509	-0.00091589	0.190214
13520	-0.000954038	0.188604
13531	-0.000858668	0.187975
13542	-0.000858668	0.185356
13553	-0.000839594	0.18416
13564	-0.000896816	0.182794
13575	-0.000896816	0.182208
13586	-0.000782372	0.179953
13597	-0.00103033	0.178723
13608	-0.00082052	0.17738
13619	-0.000992187	0.17685
13630	-0.000877742	0.174435
13641	-0.000858668	0.173348
13652	-0.000973113	0.172268
13663	-0.000973113	0.171703
13674	-0.000896816	0.169786
13685	-0.00091589	0.168481
13696	-0.000934964	0.167597
13707	-0.000782372	0.166855
13718	-0.00091589	0.165598
13729	-0.000954038	0.163957
13740	-0.000896816	0.1634
13751	-0.000973113	0.162496
13762	-0.00104941	0.161619
13773	-0.000839594	0.160131
13784	-0.000877742	0.159318
13795	-0.000744223	0.158457
13806	-0.00101126	0.157746
13817	-0.00101126	0.156416
13828	-0.000877742	0.15569
13839	-0.000954038	0.154907
13850	-0.000896816	0.154483
13861	-0.000896816	0.152707
13872	-0.000954038	0.152186
13883	-0.00101126	0.151399
13894	-0.00103033	0.151359
13905	-0.000934964	0.149394
13916	-0.000992187	0.148899
13927	-0.00091589	0.148005
13938	-0.000877742	0.147917
13949	-0.000858668	0.146391
13960	-0.00091589	0.145723
13971	-0.000896816	0.144918
13982	-0.00091589	0.144976
13993	-0.000782372	0.143409
14004	-0.000954038	0.142698
14015	-0.000934964	0.142161
14026	-0.000839594	0.141905
14037	-0.000954038	0.140776
14048	-0.000896816	0.139937
14059	-0.00082052	0.139455
14070	-0.00091589	0.138981
14081	-0.00091589	0.138378
14092	-0.000954038	0.137634
14103	-0.000706075	0.136991
14114	-0.000896816	0.136658
14125	-0.00103033	0.135994
14136	-0.000858668	0.135166
14147	-0.000858668	0.134698
14158	-0.000992187	0.134048
14169	-0.000763297	0.133922
14180	-0.000934964	0.132723
14191	-0.000992187	0.132365
14202	-0.000934964	0.131906
14213	-0.00108756	0.131968
14224	-0.000858668	0.130605
14235	-0.000934964	0.130225
14246	-0.000992187	0.129752
14257	-0.000934964	0.130153
14268	-0.00091589	0.128523
14279	-0.000896816	0.128271
14290	-0.000954038	0.127821
14301	-0.000934964	0.128049
14312	-0.000877742	0.126673
14323	-0.000839594	0.126628
14334	-0.00103033	0.126123
14345	-0.00103033	0.126264
14356	-0.000896816	0.125107
14367	-0.000992187	0.124712
14378	-0.000858668	0.124349
14389	-0.000896816	0.12442
14400	-0.000896816	0.123578
14411	-0.000992187	0.123134
14422	-0.000858668	0.122638
14433	-0.000896816	0.122715
14444	-0.000725149	0.121796
14455	-0.000954038	0.121303
14466	-0.000934964	0.12105
14477	-0.000973113	0.120865
14488	-0.000934964	0.120541
14499	-0.000877742	0.11973
14510	-0.000973113	0.119438
14521	-0.000858668	0.119129
14532	-0.00103033	0.119131
14543	-0.000877742	0.118146
14554	-0.00082052	0.117937
14565	-0.000954038	0.117733
14576	-0.000992187	0.117764
14587	-0.00091589	0.11677
14598	-0.000896816	0.116692
14609	-0.000954038	0.116212
14620	-0.000801446	0.116576
14631	-0.00091589	0.115517
14642	-0.000801446	0.11522
14653	-0.000877742	0.114809
14664	-0.00091589	0.115355
14675	-0.00101126	0.114111
14686	-0.000858668	0.11403
14697	-0.000877742	0.113551
14708	-0.000954038	0.114116
14719	-0.00114478	0.113086
14730	-0.000973113	0.112659
14741	-0.000973113	0.112592
14752	-0.00091589	0.112729
14763	-0.000934964	0.111911
14774	-0.000896816	0.111662
14785	-0.000877742	0.1112
14796	-0.000896816	0.111223
14807	-0.000877742	0.110731
14818	-0.000801446	0.110199
14829	-0.00104941	0.110003
14840	-0.000877742	0.109991
14851	-0.00091589	0.109881
14862	-0.000896816	0.108926
14873	-0.000896816	0.109072
14884	-0.000744223	0.108838
14895	-0.00091589	0.108861
14906	-0.00091589	0.108044
14917	-0.00108756	0.108018
14928	-0.00082052	0.107758
14939	-0.00082052	0.1082
14950	-0.000858668	0.107073
14961	-0.000954038	0.107113
14972	-0.000858668	0.10675
14983	-0.000896816	0.107036
14994	-0.00101126	0.10606
15005	-0.000858668	0.106021
15016	-0.000877742	0.105692
15027	-0.000954038	0.106148
15038	-0.000896816	0.105258
15049	-0.000801446	0.105084
15060	-0.000839594	0.104781
15071	-0.000877742	0.105121
15082	-0.000896816	0.104291
15093	-0.00091589	0.103962
15104	-0.000858668	0.103787
15115	-0.00082052	0.104113
15126	-0.000877742	0.103573
15137	-0.00101126	0.103258
15148	-0.00110663	0.103016
15159	-0.00082052	0.102972
15170	-0.000973113	0.102817
15181	-0.00106848	0.102327
15192	-0.000954038	0.102271
15203	-0.000954038	0.102188
15214	-0.000954038	0.102035
15225	-0.000877742	0.101452
15236	-0.00091589	0.101378
15247	-0.00103033	0.101168
15258	-0.00104941	0.101455
15269	-0.00104941	0.100645
15280	-0.000877742	0.100702
15291	-0.00091589	0.100463
15300	-0.000973113	0.100185