File: Data_01_Experiment/CA_001_C01.txt
time/s	Ewe/V	<I>/mA
1	1.49925	0.286319
40	1.49925	0.111698
79	1.49934	0.11856
118	1.49917	0.10966
157	1.49936	0.103563
196	1.49913	0.098946
235	1.4994	0.0989175
274	1.49919	0.0992654
313	1.49915	0.100064
352	1.49923	0.10041
391	1.4994	0.102637
430	1.49942	0.10354
469	1.4994	0.106553
508	1.49946	0.112257
547	1.49927	0.111854
586	1.49925	0.111557
625	1.49925	0.115583
664	1.49942	0.116125
703	1.49931	0.117257
742	1.49923	0.117036
781	1.49936	0.117649
820	1.49934	0.117991
859	1.49936	0.118542
898	1.49919	0.119467
937	1.49934	0.119741
976	1.49942	0.120462
1015	1.49933	0.121256
1054	1.49929	0.122389
1093	1.49948	0.126228
1132	1.49929	0.125393
1171	1.49934	0.125747
1210	1.4994	0.126173
1249	1.49934	0.126691
1288	1.49942	0.126657
1327	1.4994	0.127038
1366	1.49936	0.12701
1405	1.49923	0.127517
1444	1.49931	0.127649
1483	1.49942	0.128294
1522	1.49938	0.128126
1561	1.49931	0.128713
1600	1.49929	0.12873
1639	1.49936	0.128727
1678	1.49934	0.128858
1717	1.49931	0.129829
1756	1.49929	0.129667
1795	1.49919	0.129628
1833.95	-0.00108169	-0.00236302
1872.95	-0.00106262	-0.00115468
1911.95	-0.000871877	-0.000778642
1950.95	-0.000929099	-0.000573663
1989.95	-0.00104354	-0.000447287
2028.95	-0.00111984	-0.000354933
2067.95	-0.00115799	-0.000289519
2106.95	-0.00113891	-0.000235589
2145.95	-0.00111984	-0.000195402
2184.95	-0.0010054	-0.00016144
2223.95	-0.00104354	-0.000129614
2262.95	-0.00104354	-0.000106464
2301.95	-0.0010054	-8.3834e-05
2340.95	-0.00104354	-6.59891e-05
2379.95	-0.00115799	-5.00678e-05
2418.95	-0.000986321	-3.69033e-05
2457.95	-0.00106262	-2.37431e-05
2496.95	-0.00110077	-1.50778e-05
2535.95	-0.000986321	-9.64882e-06
2574.95	-0.000986321	2.51115e-06
2613.95	-0.00123428	8.0158e-06
2652.95	-0.00102447	1.34546e-05
2691.95	-0.00108169	2.06697e-05
2730.95	-0.0010054	2.54695e-05
2769.95	-0.00113891	2.97423e-05
2808.95	-0.000967247	3.40816e-05
2847.95	-0.00106262	3.81611e-05
2886.95	-0.00110077	4.19742e-05
2925.95	-0.000929099	4.54889e-05
2964.95	-0.00108169	4.85479e-05
3003.95	-0.00104354	5.08692e-05
3042.95	-0.000948173	5.47178e-05
3081.95	-0.00123428	5.63271e-05
3120.95	-0.00104354	5.88529e-05
3159.95	-0.00102447	6.10937e-05
3198.95	-0.00102447	6.41908e-05
3237.95	-0.00106262	6.66374e-05
3276.95	-0.000948173	6.68647e-05
3315.95	-0.00108169	6.94142e-05
3354.95	-0.000986321	7.13949e-05
3393.95	-0.00110077	7.31641e-05
3432.95	-0.00113891	7.42503e-05
3471.95	-0.00108169	7.5913e-05
3510.95	-0.0010054	7.75131e-05
3549.95	-0.000967247	7.8279e-05
3588.95	-0.000948173	8.1592e-05
3627.95	-0.00113891	8.0967e-05
3666.95	-0.000871877	8.14084e-05
3705.95	-0.0010054	8.30039e-05
3744.95	-0.000948173	8.45053e-05
3783.95	-0.000948173	8.52376e-05
3822.95	-0.0010054	8.63884e-05
3861.95	-0.0010054	8.72838e-05
3900.95	-0.00106262	8.79659e-05
3939.95	-0.00111984	8.85018e-05
3978.95	-0.000986321	8.90612e-05
4017.95	-0.000986321	8.92215e-05
4056.95	-0.000967247	9.11804e-05
4095.95	-0.00110077	9.2372e-05
4134.95	-0.00102447	9.24034e-05
4173.95	-0.00110077	9.34099e-05
4212.95	-0.00110077	9.5879e-05
4251.95	-0.00108169	9.53798e-05
4290.95	-0.00108169	9.52133e-05
4329.95	-0.000948173	9.6163e-05
4368.95	-0.000948173	9.62975e-05
4407.95	-0.00111984	9.7729e-05
4446.95	-0.00121521	9.7707e-05
4485.95	-0.00106262	9.84522e-05
4524.95	-0.00111984	9.85044e-05
4563.95	-0.000833729	9.932e-05
4602.95	-0.00102447	9.95731e-05
4641.95	-0.000967247	0.000100253
4680.95	-0.00108169	0.000101307
4719.95	-0.00117706	0.0001019
4758.95	-0.00111984	0.000102847
4797.95	-0.000910025	0.000102557
4836.95	-0.00113891	0.00010355
4875.95	-0.00111984	0.000103875
4914.95	-0.00110077	0.000103964
4953.95	-0.00113891	0.000103157
4992.95	-0.0010054	0.000104115
5031.95	-0.00115799	0.000103761
5070.95	-0.00104354	0.000104249
5109.95	-0.00108169	0.00010438
5148.95	-0.00104354	0.000104469
5187.95	-0.000890951	0.000104972
5226.95	-0.000986321	0.000105242
5265.95	-0.00104354	0.000106347
5304.95	-0.00104354	0.000105256
5343.95	-0.000967247	0.000105438
5382.95	-0.00125336	0.000105707
5421.95	-0.00108169	0.000106436
5460.95	-0.000948173	0.000106003
5499.95	-0.000929099	0.000106338
5538.95	-0.00111984	0.000105788
5577.95	-0.000967247	0.000106653
5616.95	-0.00121521	0.000106637
5655.95	-0.00111984	0.000106533
5694.95	-0.000948173	0.000106582
5733.95	-0.00110077	0.000106792
5772.95	-0.00102447	0.000108902
5811.95	-0.00108169	0.000106594
5850.95	-0.00106262	0.000107115
5889.95	-0.000929099	0.000107571
5928.95	-0.00123428	0.000107897
5967.95	-0.000929099	0.000107537
6006.95	-0.000948173	0.000107784
6045.95	-0.00106262	0.000107445
6084.95	-0.000890951	0.000108208
6123.95	-0.00110077	0.0001082
6162.95	-0.00117706	0.000109507
6201.95	-0.000986321	0.000109665
6240.95	-0.000967247	0.000110148
6279.95	-0.00104354	0.000112497
6318.95	-0.00104354	0.000109563
6357.95	-0.00119614	0.000109953
6396.95	-0.000986321	0.000110286
6435.95	-0.000986321	0.000111514
6474.95	-0.00102447	0.000110607
6513.95	-0.000967247	0.000111346
6552.95	-0.000948173	0.000110827
6591.95	-0.00102447	0.000111142
6630.95	-0.0010054	0.000111055
6669.95	-0.00104354	0.000110656
6708.95	-0.00102447	0.000110693
6747.95	-0.00106262	0.000110915
6786.95	-0.00104354	0.000111767
6825.95	-0.00113891	0.000110707
6864.95	-0.00110077	0.000111209
6903.95	-0.00106262	0.000111063
6942.95	-0.00104354	0.000111796
6981.95	-0.00113891	0.000111209
7020.95	-0.000967247	0.000111524
7059.95	-0.00111984	0.000111281
7098.95	-0.00104354	0.000112554
7137.95	-0.000967247	0.000112244
7176.95	-0.00119614	0.000118891
7215.95	-0.000986321	0.000118578
7254.95	-0.00108169	0.000118617
7293.95	-0.000948173	0.000118603
7332.95	-0.000967247	0.000117659
7371.95	-0.0010054	0.000118036
7410.95	-0.00104354	0.00011797
7449.95	-0.000986321	0.000118748
7488.95	-0.00110077	0.000117233
7527.95	-0.00102447	0.000118092
7566.95	-0.00102447	0.000117531
7605.95	-0.00110077	0.000117933
7644.95	-0.000967247	0.000118244
7683.95	-0.000871877	0.000117648
7722.95	-0.00108169	0.000117162
7761.95	-0.00108169	0.000117915
7800.95	-0.000967247	0.00011833
7839.95	-0.00117706	0.000118988
7878.95	-0.000967247	0.000118929
7917.95	-0.00110077	0.000118603
7956.95	-0.000967247	0.000119285
7995.95	-0.00111984	0.000118145
8034.95	-0.0010054	0.000118593
8073.95	-0.00106262	0.000118123
8112.95	-0.00113891	0.000119025
8151.95	-0.000910025	0.000119093
8190.95	-0.00123428	0.000119563
8229.95	-0.000757432	0.000118561
8268.95	-0.00108169	0.00011893
8307.95	-0.00106262	0.000119212
8346.95	-0.00108169	0.000118554
8385.95	-0.000929099	0.00011884
8424.95	-0.00106262	0.000118678
8463.95	-0.000986321	0.000121324
8502.95	-0.00106262	0.000118997
8541.95	-0.00115799	0.000119113
8580.95	-0.000967247	0.000118938
8619.95	-0.0010054	0.000119674
8658.95	-0.00108169	0.000119597
8697.95	-0.00102447	0.00011923
8736.95	-0.00108169	0.000118912
8775.95	-0.00104354	0.000119665
8814.95	-0.00108169	0.000120039
8853.95	-0.0010054	0.000119075
8892.95	-0.000948173	0.000119288
8931.95	-0.000948173	0.000119632
8970.95	-0.000910025	0.000119809
9009.95	-0.00110077	0.000119615
9048.95	-0.00110077	0.000119983
9087.95	-0.000948173	0.000119705
9126.95	-0.00110077	0.000120569
9165.95	-0.000986321	0.000119492
9204.95	-0.00110077	0.000119802
9243.95	-0.000948173	0.000119457
9282.95	-0.00102447	0.000119973
9321.95	-0.0010054	0.000119648
9360.95	-0.000948173	0.000119399
9399.95	-0.00102447	0.000119403
9438.95	-0.000871877	0.000119728
9477.95	-0.00102447	0.00012037
9516.95	-0.00106262	0.000118966
9555.95	-0.000833729	0.000119906
9594.95	-0.000948173	0.000119995
9633.95	-0.00117706	0.000120776
9672.95	-0.0010054	0.000120549
9711.95	-0.00110077	0.000120148
9750.95	-0.00113891	0.000120578
9789.95	-0.00108169	0.000121116
9828.95	-0.000986321	0.000121698
9867.95	-0.00104354	0.000121307
9906.95	-0.000967247	0.000120885
9945.95	-0.000967247	0.000121405
9984.95	-0.00106262	0.00012172
10024	-0.000890951	0.00012086
10063	-0.00108169	0.000121338
10102	-0.000986321	0.000121113
10141	-0.00104354	0.000122186
10180	-0.00110077	0.000120818
10219	-0.000967247	0.00012173
10258	-0.000929099	0.000121295
10297	-0.00108169	0.000121742
10336	-0.00108169	0.000122282
10375	-0.00102447	0.000121531
10414	-0.0010054	0.000121513
10453	-0.000948173	0.000122082
10492	-0.00119614	0.000123356
10531	-0.00104354	0.000121839
10570	-0.000986321	0.000122252
10609	-0.00102447	0.000122262
10648	-0.0010054	0.0001226
10687	-0.00104354	0.000121942
10726	-0.00108169	0.000122457
10765	-0.000986321	0.000121853
10804	-2.00085	-1.86283
10843	-2.00083	-1.26549
10882	-2.00094	-1.23913
10921	-2.00077	-1.15652
10960	-2.00091	-1.08659
10999	-2.00091	-1.02851
11038	-2.00075	-0.983498
11077	-2.00081	-0.942312
11116	-2.00094	-0.910054
11155	-2.00094	-0.882258
11194	-2.00085	-0.861395
11233	-2.00072	-0.836312
11272	-2.00085	-0.820439
11311	-2.00085	-0.803152
11350	-2.00087	-0.788821
11389	-2.00094	-0.771245
11428	-2.00094	-0.757127
11467	-2.00093	-0.744358
11506	-2.00087	-0.731606
11545	-2.00089	-0.719092
11584	-2.00089	-0.70695
11623	-2.00083	-0.697698
11662	-2.00091	-0.688567
11701	-0.00121521	1.13161
11740	-0.000929099	0.0200127
11779	-0.0010054	0.00968302
11818	-0.000967247	0.00632728
11857	-0.000852803	0.00470374
11896	-0.000929099	0.0037695
11935	-0.00104354	0.0031502
11974	-0.000967247	0.00269913
12013	-0.00117706	0.00236767
12052	-0.0010054	0.00211291
12091	-0.00104354	0.00193041
12130	-0.00117706	0.00177261
12169	-0.000929099	0.00163692
12208	-0.0010054	0.00153315
12247	-0.00106262	0.00143338
12286	-0.00111984	0.00134627
12325	-0.00102447	0.00126768
12364	-0.00108169	0.00119916
12403	-0.000967247	0.0011376
12442	-0.000967247	0.00108302
12481	-0.00102447	0.00103399
12520	-0.000890951	0.000988919
12559	-0.000986321	0.000947894
12598	-0.000986321	0.000911455
12637	-0.0010054	0.00087727
12676	-0.000929099	0.000846978
12715	-0.00104354	0.000817261
12754	-0.000929099	0.000791936
12793	-0.000852803	0.000767086
12832	-0.00106262	0.000745884
12871	-0.000910025	0.000724609
12910	-0.000929099	0.000704423
12949	-0.00121521	0.00068641
12988	-0.0010054	0.000669382
13027	-0.000967247	0.000654194
13066	-0.00102447	0.000638595
13105	-0.00110077	0.000623852
13144	-0.00108169	0.000610371
13183	-0.000890951	0.000599599
13222	-0.0010054	0.000586119
13261	-0.00102447	0.000574664
13300	-0.00102447	0.000564417
13339	-0.000948173	0.000554224
13378	-0.00104354	0.000544347
13417	-0.000967247	0.000535718
13456	-0.0010054	0.000525455
13495	-0.000890951	0.000517474
13534	-0.00108169	0.000510176
13573	-0.000967247	0.000500418
13612	-0.00102447	0.000492132
13651	-0.00115799	0.000485693
13690	-0.00102447	0.000479416
13729	-0.000948173	0.000472257
13768	-0.00102447	0.000466138
13807	-0.00104354	0.000459436
13846	-0.000890951	0.000454162
13885	-0.00117706	0.000448178
13924	-0.000986321	0.000442348
13963	-0.00110077	0.000436894
14002	-0.00108169	0.000431345
14041	-0.00102447	0.00042799
14080	-0.00102447	0.000421618
14119	-0.00115799	0.00041655
14158	-0.000967247	0.000412841
14197	-0.00106262	0.000409358
14236	-0.000910025	0.00040399
14275	-0.00106262	0.00040012
14314	-0.00104354	0.000396039
14353	-0.00113891	0.000392751
14392	-0.00110077	0.000388021
14431	1.49944	0.635229
14470	1.49923	0.449391
14509	1.49927	0.35966
14548	1.49931	0.308582
14587	1.49929	0.275541
14626	1.49919	0.254088
14665	1.49923	0.239647
14704	1.49931	0.230163
14743	1.4994	0.224108
14782	1.49921	0.21947
14821	1.49944	0.216296
14860	1.49929	0.21395
14899	1.49927	0.212094
14938	1.4994	0.210553
14977	1.49931	0.20935
15016	1.49929	0.207966
15055	1.4994	0.206707
15094	1.49917	0.205975
15133	1.49917	0.205487
15172	1.49933	0.204722
15211	1.49933	0.203902
15250	1.49929	0.203389
15289	1.49923	0.202623
15328	1.49931	0.201953
15367	1.49933	0.201295
15406	1.49936	0.200698
15445	1.49942	0.200262
15484	1.49927	0.199517
15523	1.4994	0.198871
15562	1.49933	0.198114
15601	1.49934	0.197933
15640	1.49942	0.197058
15679	1.49923	0.196525
15718	1.49927	0.195962
15757	1.49936	0.19551
15796	1.49933	0.194946
15835	1.49934	0.194258
15874	1.49936	0.193742
15913	1.49915	0.193237
15952	1.49919	0.192825
15991	1.49927	0.192112
16030	1.49948	0.191758
16069	1.49948	0.191262
16108	1.49923	0.191027
16147	1.49933	0.190777
16186	1.49942	0.190362
16225	-0.0010054	-0.00530983
16264	-0.000890951	-0.00224429
16303	-0.00117706	-0.00150994
16342	-0.000929099	-0.00114588
16381	-0.0010054	-0.000927795
16420	-0.00106262	-0.0007869
16459	-0.000986321	-0.000669941
16498	-0.00111984	-0.000585435
16537	-0.00104354	-0.000515597
16576	-0.000910025	-0.000457403
16615	-0.00108169	-0.000409701
16654	-0.000929099	-0.000365951
16693	-0.000833729	-0.000328739
16732	-0.00102447	-0.00029675
16771	-0.00104354	-0.000268089
16810	-0.000986321	-0.00024024
16849	-0.00104354	-0.000216837
16888	-0.00104354	-0.000196556
16927	-0.00113891	-0.000177423
16966	-0.0010054	-0.000161641
17005	-0.00111984	-0.000145711
17044	-0.000852803	-0.000131294
17083	-0.000929099	-0.000121034
17122	-0.000948173	-0.000107598
17161	-0.00106262	-9.70481e-05
17200	-0.00111984	-8.76795e-05
17239	-0.00110077	-7.93494e-05
17278	-0.000890951	-7.24108e-05
17317	-0.00102447	-6.49274e-05
17356	-0.00110077	-5.67789e-05
17395	-0.000967247	-4.93686e-05
17434	-0.000948173	-4.49185e-05
17473	-0.000948173	-3.87694e-05
17512	-0.00104354	-3.39919e-05
17551	-0.00104354	-2.81711e-05
17590	-0.00106262	-2.45123e-05
17629	-0.00110077	-2.00406e-05
17668	-0.0010054	-1.59749e-05
17707	-0.000986321	-1.22294e-05
17746	-0.000852803	-8.44931e-06
17785	-0.000986321	-6.84377e-06
17824	-0.00102447	-2.91467e-06
17863	-0.000890951	2.95683e-07
17902	-0.000967247	4.60585e-06
17941	-0.00108169	5.95703e-06
17980	-0.000890951	9.2843e-06
18019	-0.000986321	1.14898e-05
18058	-0.000852803	1.43686e-05
18097	-0.0010054	1.69506e-05
18136	-0.00106262	1.88196e-05
18175	-0.00102447	2.08007e-05
18214	-0.000910025	2.34095e-05
18253	-0.000986321	2.55115e-05
18292	-0.00106262	2.59223e-05
18331	-0.000910025	2.89332e-05
18370	-0.00110077	3.07321e-05
18409	-0.00108169	3.27215e-05
18448	-0.0010054	3.31351e-05
18487	-0.000910025	3.53103e-05
18526	-0.000967247	3.63157e-05
18565	-0.000833729	3.84207e-05
18604	-0.00104354	3.96092e-05
18643	-0.00108169	4.05648e-05
18682	-0.00110077	4.15453e-05
18721	-0.00111984	4.3142e-05
18760	-0.000986321	4.47015e-05
18799	-0.000948173	4.48131e-05
18838	-0.000967247	4.46249e-05
18877	-0.00104354	4.66278e-05
18916	-0.00106262	4.90528e-05
18955	-0.00104354	4.92265e-05
18994	-0.000871877	5.0662e-05
19033	-0.00108169	5.17346e-05
19072	-0.000986321	5.34073e-05
19111	-0.000986321	5.35882e-05
19150	-0.00102447	5.47469e-05
19189	-0.000890951	5.52573e-05
19228	-0.0010054	5.67888e-05
19267	-0.000929099	5.79242e-05
19306	-0.00111984	5.88346e-05
19345	-0.00111984	5.95016e-05
19384	-0.00104354	5.99839e-05
19423	-0.0010054	6.10336e-05
19462	-0.00108169	6.05339e-05
19501	-0.00113891	6.19434e-05
19540	-0.00102447	6.22115e-05
19579	-0.000948173	6.384e-05
19618	-0.00110077	6.34703e-05
19657	-0.00102447	6.43008e-05
19696	-0.0010054	6.44237e-05
19735	-0.00104354	6.5348e-05
19774	-0.0010054	6.60126e-05
19813	-0.000986321	6.61874e-05
19852	-0.000890951	6.76022e-05
19891	-0.00104354	6.84617e-05
19930	-0.00102447	6.94344e-05
19969	-0.00102447	6.8569e-05
20008	-0.00111984	6.92703e-05
20047	-0.00102447	6.94973e-05
20086	-0.000890951	7.06483e-05
20125	-0.000967247	6.9867e-05
20164	-0.000948173	7.15148e-05
20203	-0.0010054	7.08028e-05
20242	-0.000890951	7.16311e-05
20281	-0.0010054	7.23101e-05
20320	-0.000967247	7.19508e-05
20359	-0.0010054	7.268e-05
20398	-0.00113891	7.268e-05
20437	-0.00102447	7.35059e-05
20476	-0.0010054	7.26226e-05
20515	-0.00111984	7.37375e-05
20554	-0.000871877	7.38575e-05
20593	-0.00106262	7.49948e-05
20632	-0.00106262	7.42849e-05
20671	-0.000910025	7.49643e-05
20710	-0.00108169	7.49586e-05
20749	-0.000948173	7.55702e-05
20788	-0.000986321	7.57672e-05
20827	-0.00119614	7.6221e-05
20866	-0.0010054	7.62578e-05
20905	-0.00108169	7.67254e-05
20944	-0.000871877	7.77852e-05
20983	-0.00104354	7.63673e-05
21022	-0.000948173	7.79153e-05
21061	-0.00110077	7.75045e-05
21100	-0.00110077	7.8615e-05
21139	-0.000948173	7.782e-05
21178	-0.00106262	7.83689e-05
21217	-0.00113891	7.82645e-05
21256	-0.000967247	7.91966e-05
21295	-0.000948173	7.96361e-05
21334	-0.00117706	7.93115e-05
21373	-0.0010054	7.96205e-05
21412	-0.000814654	7.98295e-05
21451	-0.00102447	8.01867e-05
21490	-0.000833729	7.93825e-05
21529	-0.000948173	8.06026e-05
21568	-0.00110077	8.03603e-05
21607	-0.00106262	8.13826e-05
21646	-0.00102447	8.03883e-05
21685	-0.000910025	8.12474e-05
21724	-0.000890951	8.0401e-05
21763	-0.00102447	8.16117e-05
21802	-0.00102447	8.13264e-05
21841	-0.000986321	8.10064e-05
21880	-0.000871877	8.10557e-05
21919	-0.000890951	8.15649e-05
21958	-0.000986321	8.21833e-05
21997	-0.000967247	8.12901e-05
22036	-0.00102447	8.17389e-05
22075	-0.00106262	8.1802e-05
22114	-0.00106262	8.26113e-05
22153	-0.000986321	8.19912e-05
22192	-0.0010054	8.23083e-05
22231	-0.00106262	8.19051e-05
22270	-0.00110077	8.31712e-05
22309	-0.00110077	8.30818e-05
22348	-0.000967247	8.24522e-05
22387	-0.00106262	8.2534e-05
22426	-0.0010054	8.31307e-05
22465	-0.00113891	8.35358e-05
22504	-0.00115799	8.27613e-05
22543	-0.00110077	8.29642e-05
22582	-0.00106262	8.36068e-05
22621	-0.000967247	8.43182e-05
22660	-0.00119614	8.24713e-05
22699	-0.00111984	8.41263e-05
22738	-0.000833729	8.36451e-05
22777	-0.000948173	8.50688e-05
22816	-0.000967247	8.37236e-05
22855	-0.00102447	8.45377e-05
22894	-0.0010054	8.43613e-05
22933	-0.00106262	8.4756e-05
22972	-0.00106262	8.52919e-05
23011	-0.0010054	8.43878e-05
23050	-0.000929099	8.51244e-05
23089	-0.000986321	8.49296e-05
23128	-0.000890951	8.549e-05
23167	-0.00110077	8.45874e-05
23206	-0.000948173	8.53043e-05
23245	-0.000967247	8.52922e-05
23284	-0.000890951	8.60875e-05
23323	-0.00113891	8.56216e-05
23362	-0.00106262	8.54079e-05
23401	-0.0010054	8.52108e-05
23440	-0.000967247	8.56987e-05
23479	-0.0010054	8.59284e-05
23518	-0.000948173	8.52796e-05
23557	-0.000929099	8.57564e-05
23596	-0.00113891	8.57049e-05
23635	-0.00102447	8.67083e-05
23674	-0.00108169	8.57389e-05
23713	-0.00102447	8.62502e-05
23752	-0.0010054	8.61064e-05
23791	-0.000852803	8.67515e-05
23830	-0.000986321	8.63788e-05
23869	-0.00102447	8.63456e-05
23908	-0.000948173	8.6221e-05
23947	-0.0010054	8.71006e-05
23986	-0.00102447	8.70288e-05
24025	-0.000948173	8.66775e-05
24064	-0.00106262	8.68024e-05
24103	-0.000910025	8.67424e-05
24142	-0.00110077	8.75522e-05
24181	-0.00106262	8.6816e-05
24220	-0.000910025	8.72718e-05
24259	-0.000986321	8.70197e-05
24298	-0.00115799	8.79937e-05
24337	-0.000948173	8.80726e-05
24376	-0.00108169	8.74251e-05
24415	-0.00108169	8.72981e-05
24454	-0.000948173	8.77593e-05
24493	-0.0010054	8.79066e-05
24532	-0.0010054	8.72784e-05
24571	-0.00113891	8.75777e-05
24610	-0.000986321	8.7908e-05
24649	-0.000986321	8.83617e-05
24688	-0.000890951	8.78315e-05
24727	-0.000986321	8.83514e-05
24766	-0.0010054	8.81669e-05
24805	-0.00102447	8.87815e-05
24844	-0.00106262	8.81752e-05
24883	-0.00110077	8.82477e-05
24922	-0.000986321	8.80703e-05
24961	-0.00111984	8.85548e-05
25000	-0.00104354	8.90604e-05
25039	-0.000948173	8.8483e-05
25078	-0.000986321	8.8652e-05
25117	-0.00102447	8.85123e-05
25156	-0.00110077	8.93346e-05
25195	-0.00104354	8.85913e-05
25234	-2.00096	-1.40646
25273	-2.00083	-1.02341
25312	-2.00085	-0.881498
25351	-2.00085	-0.808055
25390	-2.00081	-0.763828
25429	-2.00073	-0.733024
25468	-2.00085	-0.709911
25507	-2.00091	-0.691316
25546	-2.00085	-0.675723
25585	-2.00091	-0.663553
25624	-2.00081	-0.652565
25663	-2.00091	-0.643628
25702	-2.00093	-0.636988
25741	-2.00093	-0.628799
25780	-2.00083	-0.624529
25819	-2.00094	-0.619708
25858	-2.00068	-0.616957
25897	-2.00077	-0.610254
25936	-2.00079	-0.609639
25975	-2.00073	-0.607364
26014	-2.001	-0.606362
26053	-2.00073	-0.601883
26092	-2.00093	-0.602399
26131	-0.00102447	0.071802
26170	-0.00104354	0.0298789
26209	-0.00110077	0.0182381
26248	-0.00104354	0.0129029
26287	-0.00106262	0.00989312
26326	-0.00104354	0.00798033
26365	-0.000910025	0.00667541
26404	-0.0010054	0.0057326
26443	-0.00104354	0.00500291
26482	-0.0010054	0.00440404
26521	-0.000967247	0.00394266
26560	-0.0010054	0.00357078
26599	-0.00110077	0.00326805
26638	-0.00102447	0.00301583
26677	-0.000986321	0.00280209
26716	-0.00108169	0.00261622
26755	-0.000948173	0.00245583
26794	-0.000967247	0.00231434
26833	-0.000948173	0.00219112
26872	-0.00111984	0.00207734
26911	-0.000890951	0.00197504
26950	-0.00111984	0.00188124
26989	-0.00110077	0.00179793
27028	-0.00108169	0.00172212
27067	-0.0010054	0.00165095
27106	-0.000910025	0.00158611
27145	-0.00110077	0.00152646
27184	-0.000967247	0.00147063
27223	-0.00113891	0.00141758
27262	-0.00102447	0.00137047
27301	-0.00104354	0.00132559
27340	-0.000890951	0.00128319
27379	-0.000967247	0.00124338
27418	-0.0010054	0.00120596
27457	-0.00106262	0.00117138
27496	-0.00110077	0.001139
27535	-0.00102447	0.00111004
27574	-0.00106262	0.00108141
27613	-0.00110077	0.00105336
27652	-0.00110077	0.00103015
27691	-0.00106262	0.00100427
27730	-0.000948173	0.00097958
27769	-0.000948173	0.000958806
27808	-0.00104354	0.000938132
27847	-0.00111984	0.000919823
27886	-0.00111984	0.000898856
27925	-0.0010054	0.000880983
27964	-0.0010054	0.000862724
28003	-0.00106262	0.000848885
28042	-0.00106262	0.000833201
28081	-0.000871877	0.000818109
28120	-0.000948173	0.000801243
28159	-0.0010054	0.000789309
28198	-0.00106262	0.000776132
28237	-0.00113891	0.000763173
28276	-0.00111984	0.000752366
28315	-0.000948173	0.000739342
28354	-0.000948173	0.000727751
28393	-0.000967247	0.000715913
28432	-0.000929099	0.000707276
28471	-0.00113891	0.000695867
28510	-0.000986321	0.000686284
28549	-0.000948173	0.000677029
28588	-0.000986321	0.000667588
28627	-0.00113891	0.000659213
28666	-0.000967247	0.0006514
28705	-0.00104354	0.000642374
28744	-0.00104354	0.000635235
28783	-0.000986321	0.000624962
28822	1.49942	0.979782
28861	1.49923	0.628324
28900	1.49938	0.480604
28939	1.49936	0.397486
28978	1.49938	0.345078
29017	1.49946	0.311755
29056	1.49931	0.289085
29095	1.49929	0.274076
29134	1.49948	0.263429
29173	1.4994	0.255415
29212	1.49925	0.249471
29251	1.49923	0.245269
29290	1.49936	0.241722
29329	1.49927	0.238687
29368	1.49936	0.236116
29407	1.49944	0.233705
29446	1.49938	0.231737
29485	1.49929	0.229696
29524	1.49936	0.228226
29563	1.49946	0.226719
29602	1.49917	0.225493
29641	1.49934	0.224087
29680	1.49925	0.223054
29719	1.49917	0.221668
29758	1.49923	0.22055
29797	1.49923	0.219735
29836	1.49938	0.218581
29875	1.49929	0.217621
29914	1.49938	0.216934
29953	1.49929	0.215997
29992	1.4994	0.215217
30031	1.49929	0.214587
30070	1.49927	0.213939
30109	1.49931	0.21332
30148	1.49944	0.21267
30187	1.49934	0.21208
30226	1.49917	0.211452
30265	1.49934	0.211192
30304	1.49933	0.210735
30343	1.49936	0.210035
30382	1.49921	0.209466
30421	1.49917	0.208991
30460	1.49933	0.208785
30499	1.49923	0.208427
30538	1.49921	0.207655
30577	1.49923	0.207313
30616	-0.00115799	-0.00959558
30655	-0.000929099	-0.00320367
30694	-0.00104354	-0.00204485
30733	-0.000929099	-0.00156501
30772	-0.00110077	-0.00125323
30811	-0.000986321	-0.00106037
30850	-0.000948173	-0.000921683
30889	-0.00113891	-0.000818992
30928	-0.000890951	-0.00073133
30967	-0.000871877	-0.000660239
31006	-0.000929099	-0.000599252
31045	-0.000986321	-0.000546876
31084	-0.000967247	-0.000501017
31123	-0.00113891	-0.000460118
31162	-0.000986321	-0.000421673
31201	-0.000910025	-0.000388324
31240	-0.0010054	-0.000358642
31279	-0.00102447	-0.000329971
31318	-0.000948173	-0.00030522
31357	-0.00104354	-0.000282668
31396	-0.00104354	-0.000267152
31435	-0.00119614	-0.000245303
31474	-0.000910025	-0.000230293
31513	-0.00111984	-0.000215299
31552	-0.000910025	-0.000203939
31591	-0.00102447	-0.000189455
31630	-0.000986321	-0.00017978
31669	-0.000929099	-0.000169181
31708	-0.00113891	-0.000156699
31747	-0.000948173	-0.000150222
31786	-0.0010054	-0.00013817
31825	-0.00104354	-0.000130895
31864	-0.00108169	-0.000123089
31903	-0.000910025	-0.000117012
31942	-0.00113891	-0.000111743
31981	-0.000852803	-0.000103789
32020	-0.00119614	-9.80705e-05
32059	-0.00104354	-9.28133e-05
32098	-0.0010054	-8.74397e-05
32137	-0.00110077	-8.22068e-05
32176	-0.00104354	-7.65496e-05
32215	-0.00110077	-7.01155e-05
32254	-0.000967247	-6.75321e-05
32293	-0.00104354	-6.21106e-05
32332	-0.0010054	-5.9051e-05
32371	-0.00115799	-5.47191e-05
32410	-0.00115799	-5.26708e-05
32449	-0.0010054	-4.80295e-05
32488	-0.00110077	-4.35559e-05
32527	-0.000929099	-4.06004e-05
32566	-0.0010054	-3.79334e-05
32605	-0.0010054	-3.58748e-05
32644	-0.00123428	-3.28719e-05
32683	-0.00104354	-3.05006e-05
32722	-0.00106262	-2.78514e-05
32761	-0.000948173	-2.64762e-05
32800	-0.00115799	-2.37813e-05
32839	-0.00111984	-2.13084e-05
32878	-0.000871877	-2.01054e-05
32917	-0.000948173	-1.8415e-05
32956	-0.00106262	-1.70201e-05
32995	-0.000852803	-1.46543e-05
33034	-0.00108169	-1.22604e-05
33073	-0.00106262	-1.05015e-05
33112	-0.00106262	-1.0126e-05
33151	-0.00106262	-6.85062e-06
33190	-0.000986321	-6.10344e-06
33229	-0.000986321	-3.1026e-06
33268	-0.000986321	-3.02396e-06
33307	-0.00110077	-2.03981e-06
33346	-0.000910025	2.52025e-07
33385	-0.00111984	2.44045e-06
33424	-0.000852803	3.26043e-06
33463	-0.00108169	5.14158e-06
33502	-0.000929099	6.46418e-06
33541	-0.000986321	8.08402e-06
33580	-0.000929099	9.52272e-06
33619	-0.000967247	9.35564e-06
33658	-0.00108169	1.16479e-05
33697	-0.00104354	1.26728e-05
33736	-0.00102447	1.48627e-05
33775	-0.000929099	1.26424e-05
33814	-0.00110077	1.54426e-05
33853	-0.00111984	1.57616e-05
33892	-0.000967247	1.75991e-05
33931	-0.000871877	1.76318e-05
33970	-0.00108169	1.90076e-05
34009	-0.00104354	2.04842e-05
34048	-0.000929099	2.21721e-05
34087	-0.00110077	2.31836e-05
34126	-0.00110077	2.28684e-05
34165	-0.000929099	2.46717e-05
34204	-0.000986321	2.49896e-05
34243	-0.000948173	2.62296e-05
34282	-0.00106262	2.5121e-05
34321	-0.000967247	2.7085e-05
34360	-0.000967247	-9.28553e-06
34399	-0.00125336	2.1084e-05
34438	-0.00108169	2.38213e-05
34477	-0.00111984	2.55265e-05
34516	-0.00104354	2.80681e-05
34555	-0.00102447	2.91062e-05
34594	-0.000910025	2.91391e-05
34633	-0.0010054	2.97386e-05
34672	-0.00106262	3.22931e-05
34711	-0.00111984	3.1595e-05
34750	-0.00104354	3.37786e-05
34789	-0.00111984	3.34129e-05
34828	-0.00104354	3.48547e-05
34867	-0.000967247	3.51623e-05
34906	-0.00110077	3.53801e-05
34945	-0.000967247	3.5307e-05
34984	-0.00102447	3.6244e-05
35023	-0.000910025	3.75913e-05
35062	-0.00117706	3.79817e-05
35101	-0.000948173	3.89241e-05
35140	-0.00104354	3.75732e-05
35179	-0.0010054	3.98829e-05
35218	-0.000890951	3.97039e-05
35257	-0.000967247	4.09091e-05
35296	-0.000986321	4.06606e-05
35335	-0.00108169	4.12711e-05
35374	-0.00110077	4.10905e-05
35413	-0.00119614	4.20568e-05
35452	-0.00110077	4.20718e-05
35491	-0.000948173	4.24121e-05
35530	-0.000871877	4.42765e-05
35569	-0.000910025	4.48521e-05
35608	-0.00110077	4.49959e-05
35647	-0.000929099	4.51038e-05
35686	-0.000986321	4.53461e-05
35725	-0.00108169	4.60883e-05
35764	-0.00111984	4.70128e-05
35803	-0.0010054	4.65662e-05
35842	-0.000929099	4.74378e-05
35881	-0.00111984	4.77924e-05
35920	-0.000910025	4.87505e-05
35959	-0.00117706	4.81721e-05
35998	-0.000948173	4.90942e-05
36037	-0.00106262	4.92924e-05
36076	-0.00104354	5.02547e-05
36115	-0.000967247	5.13497e-05
36154	-0.0010054	5.01217e-05
36193	-0.000910025	5.13108e-05
36232	-0.000967247	5.17593e-05
36271	-0.000986321	5.19329e-05
36310	-0.0010054	5.16798e-05
36349	-0.000910025	5.16225e-05
36388	-0.000910025	5.23839e-05
36427	-0.00106262	5.34927e-05
36466	-0.000986321	5.35905e-05
36505	-0.000852803	5.38134e-05
36544	-0.000871877	5.41283e-05
36583	-0.000776506	5.42146e-05
36622	-0.0010054	5.45979e-05
36661	-0.000890951	5.40749e-05
36700	-0.0010054	5.53147e-05
36739	-0.00110077	5.51573e-05
36778	-0.000929099	5.61546e-05
36817	-0.000986321	5.61823e-05
36856	-0.00102447	5.6421e-05
36895	-0.00111984	5.57885e-05
36934	-0.00102447	5.66256e-05
36973	-0.00108169	5.657e-05
37012	-0.0010054	5.64499e-05
37051	-0.000948173	5.67164e-05
37090	-0.00102447	5.72445e-05
37129	-0.00110077	5.76508e-05
37168	-0.00108169	5.74078e-05
37207	-0.000986321	5.78652e-05
37246	-0.000986321	5.80983e-05
37285	-0.00108169	5.8466e-05
37324	-0.00115799	5.84824e-05
37363	-0.00104354	5.90783e-05
37402	-0.00106262	5.89809e-05
37441	-0.00119614	5.96829e-05
37480	-0.00102447	5.9485e-05
37519	-0.00104354	5.94406e-05
37558	-0.00111984	5.97532e-05
37597	-0.00111984	6.00726e-05
37636	-0.000948173	6.07266e-05
37675	-0.000986321	6.01283e-05
37714	-0.000986321	6.08063e-05
37753	-0.0010054	6.07971e-05
37792	-0.00106262	6.20258e-05
37831	-0.00125336	6.10555e-05
37870	-0.000967247	6.1618e-05
37909	-0.00106262	6.12378e-05
37948	-0.00102447	6.19972e-05
37987	-0.000833729	6.19067e-05
38026	-0.000986321	6.21701e-05
38065	-0.00110077	6.23139e-05
38104	-0.0010054	6.39589e-05
38143	-0.0010054	6.31729e-05
38182	-0.00113891	6.29456e-05
38221	-0.00113891	6.34448e-05
38260	-0.000948173	6.39115e-05
38299	-0.000948173	6.41823e-05
38338	-0.00106262	6.36311e-05
38377	-0.000986321	6.43898e-05
38416	-0.000986321	6.40154e-05
38455	-0.000929099	6.47558e-05
38494	-0.000929099	6.46636e-05
38533	-0.0010054	6.41642e-05
38572	-0.00108169	6.47301e-05
38611	-0.000929099	6.50721e-05
38650	-0.0010054	6.51815e-05
38689	-0.000948173	6.4703e-05
38728	-0.00108169	6.52416e-05
38767	-0.00123428	6.4975e-05
38806	-0.000890951	6.64894e-05
38845	-0.00110077	6.54581e-05
38884	-0.000986321	6.61007e-05
38923	-0.000967247	6.60136e-05
38962	-0.000948173	0.000123362
39001	-0.00111984	0.000110192
39040	-0.000910025	0.000104382
39079	-0.000929099	0.000101355
39118	-0.00104354	0.000102976
39157	-0.000948173	0.000102524
39196	-0.00125336	9.98794e-05
39235	-0.00113891	9.90187e-05
39274	-0.000871877	0.00010197
39313	-0.000986321	9.93592e-05
39352	-0.00102447	9.76128e-05
39391	-0.000910025	9.80393e-05
39430	-0.000890951	0.000122495
39469	-0.00102447	0.000115663
39508	-0.00108169	0.000112658
39547	-0.00106262	0.000112526
39586	-0.00113891	0.000110398
39625	-2.00091	-1.8229
39664	-2.00083	-1.16897
39703	-2.00085	-0.975622
39742	-2.00091	-0.881951
39781	-2.00081	-0.828563
39820	-2.00096	-0.794466
39859	-2.00077	-0.773445
39898	-2.00064	-0.759309
39937	-2.00079	-0.750164
39976	-2.00093	-0.741783
40015	-2.00087	-0.736819
40054	-2.00081	-0.733631
40093	-2.00089	-0.729868
40132	-2.00083	-0.72771
40171	-2.00087	-0.7249
40210	-2.00093	-0.725129
40249	-2.00093	-0.723217
40288	-2.00083	-0.722634
40327	-2.00085	-0.72171
40366	-2.00081	-0.722515
40405	-2.00089	-0.72053
40444	-2.00089	-0.720994
40483	-2.00085	-0.720763
40522	-0.000910025	0.164929
40561	-0.00102447	0.0576474
40600	-0.00106262	0.0334465
40639	-0.00108169	0.0231436
40678	-0.000929099	0.0174789
40717	-0.000967247	0.0139278
40756	-0.000948173	0.011496
40795	-0.00110077	0.00976599
40834	-0.00106262	0.00853885
40873	-0.000967247	0.00750879
40912	-0.00113891	0.00671267
40951	-0.00113891	0.0060642
40990	-0.00102447	0.00551255
41029	-0.000986321	0.00505959
41068	-0.00102447	0.00464828
41107	-0.000986321	0.00432564
41146	-0.000948173	0.00404303
41185	-0.00104354	0.00380953
41224	-0.00102447	0.00358263
41263	-0.00106262	0.00339572
41302	-0.00115799	0.003247
41341	-0.0010054	0.00310725
41380	-0.00108169	0.00295508
41419	-0.00104354	0.00283305
41458	-0.000948173	0.0027276
41497	-0.00117706	0.00264397
41536	-0.00110077	0.00253824
41575	-0.000967247	0.00243597
41614	-0.000967247	0.00235406
41653	-0.00108169	0.00226943
41692	-0.0010054	0.00220359
41731	-0.000929099	0.00214365
41770	-0.00108169	0.00208924
41809	-0.00106262	0.00202505
41848	-0.000967247	0.00196774
41887	-0.00111984	0.00190994
41926	-0.00106262	0.00185924
41965	-0.00106262	0.00180377
42004	-0.000871877	0.00176375
42043	-0.000948173	0.00172379
42082	-0.00102447	0.00168165
42121	-0.000929099	0.00163677
42160	-0.000986321	0.00161184
42199	-0.000986321	0.00157576
42238	-0.000986321	0.00152886
42277	-0.0010054	0.00150517
42316	-0.000910025	0.00147615
42355	-0.00110077	0.00144703
42394	-0.000890951	0.00141682
42433	-0.0010054	0.00139156
42472	-0.000948173	0.00136346
42511	-0.00104354	0.00133997
42550	-0.00110077	0.00131307
42589	-0.000986321	0.00129106
42628	-0.000910025	0.00127082
42667	-0.00104354	0.00125186
42706	-0.00106262	0.00123518
42745	-0.0010054	0.00121159
42784	-0.000910025	0.00119608
42823	-0.00104354	0.0011756
42862	-0.00110077	0.00116038
42901	-0.0010054	0.00114156
42940	-0.00121521	0.00112555
42979	-0.00111984	0.00111508
43018	-0.000890951	0.00110169
43057	-0.00110077	0.00109443
43096	-0.00104354	0.00107495
43135	-0.000986321	0.00106024
43174	-0.000967247	0.00104866
43213	1.49942	2.12436
43252	1.49929	0.659159
43291	1.49934	0.507965
43330	1.4994	0.41489
43369	1.4994	0.356994
43408	1.49923	0.319255
43447	1.49938	0.292611
43486	1.4991	0.273415
43525	1.49921	0.255903
43564	1.49934	0.246167
43603	1.49946	0.239264
43642	1.49927	0.233706
43681	1.4994	0.229433
43720	1.49934	0.225388
43759	1.49944	0.222481
43798	1.49942	0.219784
43837	1.49933	0.217359
43876	1.49934	0.215321
43915	1.4994	0.213761
43954	1.49934	0.212137
43993	1.49927	0.210703
44032	1.49929	0.209218
44071	1.49944	0.207956
44110	1.49923	0.206998
44149	1.4994	0.205967
44188	1.49929	0.205087
44227	1.49931	0.203864
44266	1.49921	0.20317
44305	1.49927	0.20215
44344	1.49927	0.201254
44383	1.49942	0.200329
44422	1.49938	0.199696
44461	1.49923	0.199192
44500	1.49933	0.198583
44539	1.49942	0.197689
44578	1.49933	0.197063
44617	1.4994	0.196516
44656	1.49923	0.19585
44695	1.49936	0.19534
44734	1.49925	0.194659
44773	1.49936	0.194354
44812	1.49934	0.193856
44851	1.4994	0.193345
44890	1.4994	0.192817
44929	1.49933	0.192448
44968	1.49936	0.191888
45007	-0.00113891	-0.0214618
45046	-0.00106262	-0.00438859
45085	-0.000967247	-0.00266749
45124	-0.000948173	-0.00197978
45163	-0.0010054	-0.00160483
45202	-0.00108169	-0.0013572
45241	-0.00108169	-0.00118529
45280	-0.00121521	-0.00104679
45319	-0.000833729	-0.000937365
45358	-0.000948173	-0.000842665
45397	-0.00117706	-0.000773847
45436	-0.00104354	-0.000705746
45475	-0.00108169	-0.000647931
45514	-0.00113891	-0.000598139
45553	-0.00108169	-0.000554462
45592	-0.000986321	-0.000513521
45631	-0.0010054	-0.000474455
45670	-0.00102447	-0.000441445
45709	-0.00104354	-0.000410857
45748	-0.000986321	-0.000385107
45787	-0.000967247	-0.000357966
45826	-0.000910025	-0.000336291
45865	-0.00110077	-0.000314885
45904	-0.000910025	-0.000299204
45943	-0.00104354	-0.00027822
45982	-0.000910025	-0.000261415
46021	-0.00106262	-0.000246505
46060	-0.0010054	-0.000236261
46099	-0.0010054	-0.000225248
46138	-0.00108169	-0.000212161
46177	-0.000986321	-0.00020129
46216	-0.00106262	-0.000190659
46255	-0.000967247	-0.000185475
46294	-0.00115799	-0.00017468
46333	-0.00110077	-0.000167859
46372	-0.00104354	-0.000159579
46411	-0.000890951	-0.000155126
46450	-0.00111984	-0.0001474
46489	-0.000929099	-0.000140469
46528	-0.0010054	-0.000136906
46567	-0.00108169	-0.000131435
46606	-0.000986321	-0.000126788
46645	-0.000967247	-0.000118233
46684	-0.00111984	-0.000114175
46723	-0.000948173	-0.000109096
46762	-0.00108169	-0.000109521
46801	-0.00110077	-0.000100979
46840	-0.000967247	-9.77507e-05
46879	-0.00106262	-9.42635e-05
46918	-0.000910025	-9.52367e-05
46957	-0.00113891	-8.77787e-05
46996	-0.00079558	-8.36185e-05
47035	-0.00102447	-8.19984e-05
47074	-0.000852803	-8.00211e-05
47113	-0.0010054	-7.75987e-05
47152	-0.000948173	-7.32766e-05
47191	-0.000948173	-7.17799e-05
47230	-0.00102447	-6.89157e-05
47269	-0.000929099	-6.79935e-05
47308	-0.00111984	-6.40092e-05
47347	-0.00104354	-6.0921e-05
47386	-0.000986321	-5.76419e-05
47425	-0.00106262	-5.91086e-05
47464	-0.00108169	-5.56185e-05
47503	-0.00102447	-5.26204e-05
47542	-0.00102447	-5.2629e-05
47581	-0.00110077	-5.09786e-05
47620	-0.00106262	-4.80557e-05
47659	-0.00111984	-4.49335e-05
47698	-0.000890951	-4.54212e-05
47737	-0.00110077	-4.2885e-05
47776	-0.00110077	-4.222e-05
47815	-0.00104354	-3.88864e-05
47854	-0.000986321	-4.00671e-05
47893	-0.00104354	-4.06382e-05
47932	-0.00115799	-3.73395e-05
47971	-0.00111984	-3.58726e-05
48010	-0.0010054	-3.40853e-05
48049	-0.00104354	-3.30292e-05
48088	-0.000948173	-3.19525e-05
48127	-0.000871877	-3.15952e-05
48166	-0.00110077	-2.94354e-05
48205	-0.000986321	-2.8491e-05
48244	-0.00104354	-2.91927e-05
48283	-0.00106262	-2.56727e-05
48322	-0.000910025	-2.37751e-05
48361	-0.000929099	-2.36852e-05
48400	-0.000910025	-2.18705e-05
48439	-0.00102447	-2.15662e-05
48478	-0.000929099	-1.97349e-05
48517	-0.00115799	-1.87296e-05
48556	-0.00108169	-1.75358e-05
48595	-0.00102447	-1.68537e-05
48634	-0.00108169	-1.65965e-05
48673	-0.000967247	-1.4757e-05
48712	-0.000890951	-1.4365e-05
48751	-0.000948173	-1.48409e-05
48790	-0.00113891	-1.4753e-05
48829	-0.000871877	-1.28866e-05
48868	-0.00104354	-1.17285e-05
48907	-0.00110077	-1.08059e-05
48946	-0.000929099	-9.97037e-06
48985	-0.000967247	-8.74418e-06
49024	-0.00102447	-7.51672e-06
49063	-0.0010054	-7.91299e-06
49102	-0.000967247	-7.09623e-06
49141	-0.000833729	-6.52017e-06
49180	-0.00104354	-4.90605e-06
49219	-0.00110077	-4.07419e-06
49258	-0.000852803	-2.66028e-06
49297	-0.00104354	-3.35912e-06
49336	-0.00104354	-2.37378e-06
49375	-0.00106262	-3.30106e-06
49414	-0.000986321	-1.24568e-06
49453	-0.00117706	-1.39614e-06
49492	-0.000986321	8.65808e-07
49531	-0.000948173	1.23216e-06
49570	-0.00102447	2.21444e-06
49609	-0.00111984	2.49225e-06
49648	-0.00110077	2.42022e-06
49687	-0.000948173	3.07418e-06
49726	-0.00106262	2.92179e-06
49765	-0.00108169	4.94491e-06
49804	-0.00106262	3.98478e-06
49843	-0.000948173	4.92505e-06
49882	-0.00106262	5.14677e-06
49921	-0.000967247	6.80207e-06
49960	-0.000986321	6.7483e-06
49999	-0.000890951	8.31699e-06
50038	-0.00111984	7.67165e-06
50077	-0.00102447	8.34312e-06
50116	-0.00106262	8.66581e-06
50155	-0.000929099	1.00821e-05
50194	-0.0010054	1.11763e-05
50233	-0.00102447	1.25523e-05
50272	-0.0010054	1.25935e-05
50311	-0.00106262	1.23564e-05
50350	-0.00102447	1.24059e-05
50389	-0.00106262	1.34265e-05
50428	-0.0010054	1.44301e-05
50467	-0.00106262	1.35184e-05
50506	-0.000948173	1.52113e-05
50545	-0.00110077	1.52121e-05
50584	-0.00110077	1.61309e-05
50623	-0.00102447	1.6402e-05
50662	-0.00110077	1.6364e-05
50701	-0.0010054	1.71027e-05
50740	-0.000986321	1.75869e-05
50779	-0.000986321	1.82107e-05
50818	-0.00106262	1.74923e-05
50857	-0.0010054	1.87599e-05
50896	-0.00111984	1.93685e-05
50935	-0.00104354	2.01844e-05
50974	-0.00102447	1.95471e-05
51013	-0.000986321	2.05313e-05
51052	-0.000967247	2.09708e-05
51091	-0.00104354	2.12632e-05
51130	-0.0010054	2.19234e-05
51169	-0.00102447	2.15439e-05
51208	-0.00111984	2.24818e-05
51247	-0.00110077	2.31648e-05
51286	-0.00110077	2.41389e-05
51325	-0.000986321	2.3135e-05
51364	-0.00102447	2.42708e-05
51403	-0.00108169	2.48333e-05
51442	-0.000948173	2.58092e-05
51481	-0.000929099	2.52282e-05
51520	-0.00115799	2.72539e-05
51559	-0.000967247	2.63066e-05
51598	-0.00102447	2.76406e-05
51637	-0.00104354	2.74411e-05
51676	-0.000929099	2.70857e-05
51715	-0.000986321	2.83019e-05
51754	-0.000948173	2.8413e-05
51793	-0.000986321	2.86572e-05
51832	-0.00102447	2.86413e-05
51871	-0.00111984	3.00759e-05
51910	-0.000967247	3.02911e-05
51949	-0.00102447	3.08334e-05
51988	-0.00106262	2.92049e-05
52027	-0.00104354	3.12947e-05
52066	-0.0010054	3.09342e-05
52105	-0.00117706	3.18644e-05
52144	-0.00102447	3.14062e-05
52183	-0.000890951	3.23425e-05
52222	-0.00111984	3.30669e-05
52261	-0.00104354	3.3326e-05
52300	-0.00108169	3.40361e-05
52339	-0.00106262	3.32351e-05
52378	-0.000948173	3.47361e-05
52417	-0.000910025	3.47918e-05
52456	-0.00113891	3.5837e-05
52495	-0.000967247	3.45401e-05
52534	-0.000910025	3.54544e-05
52573	-0.0010054	3.58556e-05
52612	-0.00113891	3.64759e-05
52651	-0.00115799	3.57963e-05
52690	-0.000967247	3.63574e-05
52729	-0.00113891	3.7053e-05
52768	-0.00102447	3.70421e-05
52807	-0.00104354	3.72954e-05
52846	-0.00113891	3.62876e-05
52885	-0.00111984	3.74817e-05
52924	-0.0010054	3.74973e-05
52963	-0.000871877	3.84984e-05
53002	-0.00121521	3.80783e-05
53041	-0.000967247	3.85851e-05
53080	-0.00108169	3.8717e-05
53119	-0.00111984	3.97779e-05
53158	-0.0010054	4.05272e-05
53197	-0.00113891	4.0078e-05
53236	-0.0010054	3.95779e-05
53275	-0.000986321	4.01198e-05
53314	-0.00110077	4.03926e-05
53353	-0.000986321	4.01043e-05
53392	-0.000948173	4.09567e-05
53431	-0.0010054	4.09245e-05
53470	-0.00104354	4.10789e-05
53509	-0.00108169	4.019e-05
53548	-0.00117706	4.14125e-05
53587	-0.00106262	4.12689e-05
53626	-0.00113891	4.2103e-05
53665	-0.000967247	4.20955e-05
53704	-0.00104354	4.18096e-05
53743	-0.0010054	4.16898e-05
53782	-0.000986321	0.000908081
53821	-0.00106262	0.000440389
53860	-0.00104354	0.000324192
53899	-0.00111984	0.000267325
53938	-0.000929099	0.000234483
53977	-0.00102447	0.000212983
54016	-2.00096	-2.49278
54055	-2.00083	-1.35468
54094	-2.00089	-1.08234
54133	-2.00079	-0.968212
54172	-2.00081	-0.904266
54211	-2.00093	-0.87269
54250	-2.00075	-0.851496
54289	-2.00075	-0.839589
54328	-2.00087	-0.832232
54367	-2.00079	-0.829768
54406	-2.00094	-0.82516
54445	-2.00073	-0.82245
54484	-2.0007	-0.820616
54523	-2.00089	-0.820607
54562	-2.00081	-0.819565
54601	-2.00091	-0.818203
54640	-2.00073	-0.818211
54679	-2.00091	-0.817893
54718	-2.00083	-0.818561
54757	-2.00085	-0.817847
54796	-2.00081	-0.817987
54835	-2.00083	-0.817724
54874	-2.00077	-0.819409
54913	-0.0010054	0.351901
54952	-0.000929099	0.0839206
54991	-0.00102447	0.0455409
55030	-0.00102447	0.0305561
55069	-0.000910025	0.0226507
55108	-0.00108169	0.0178079
55147	-0.00111984	0.0145585
55186	-0.00106262	0.0122586
55225	-0.00104354	0.0105301
55264	-0.00113891	0.00922297
55303	-0.000986321	0.00819284
55342	-0.000871877	0.00736245
55381	-0.00113891	0.00665968
55420	-0.0010054	0.00606941
55459	-0.00108169	0.00558216
55498	-0.00104354	0.00516529
55537	-0.00102447	0.00479409
55576	-0.00106262	0.00448501
55615	-0.00108169	0.0042049
55654	-0.00117706	0.0039659
55693	-0.00111984	0.00376382
55732	-0.00104354	0.00357778
55771	-0.00108169	0.00340379
55810	-0.000910025	0.00324631
55849	-0.00113891	0.00310754
55888	-0.00108169	0.0029824
55927	-0.00113891	0.00286325
55966	-0.0010054	0.00275127
56005	-0.000833729	0.00264918
56044	-0.000967247	0.00255756
56083	-0.000929099	0.0024687
56122	-0.000967247	0.00238505
56161	-0.00110077	0.00230817
56200	-0.000986321	0.00223577
56239	-0.000986321	0.00216865
56278	-0.000948173	0.00210316
56317	-0.00106262	0.00204181
56356	-0.000967247	0.0059468
56395	-0.0010054	0.00192584
56434	-0.00108169	0.00187715
56473	-0.0010054	0.00182856
56512	-0.000967247	0.00178219
56551	-0.00110077	0.00173491
56590	-0.00111984	0.00169872
56629	-0.000948173	0.0016571
56668	-0.00111984	0.00162067
56707	-0.00110077	0.00158415
56746	-0.00108169	0.00155082
56785	-0.00113891	0.0015173
56824	-0.000948173	0.0014833
56863	-0.0010054	0.00145351
56902	-0.000986321	0.00142981
56941	-0.00110077	0.00140105
56980	-0.0010054	0.00137277
57019	-0.00108169	0.00134812
57058	-0.00110077	0.0013243
57097	-0.0010054	0.00130113
57136	-0.000871877	0.00127978
57175	-0.00108169	0.00126125
57214	-0.000871877	0.00123431
57253	-0.000986321	0.0012172
57292	-0.0010054	0.00120008
57331	-0.000986321	0.0011789
57370	-0.00104354	0.00115896
57409	-0.000948173	0.00114645
57448	-0.00108169	0.0011243
57487	-0.00108169	0.00110985
57526	-0.00111984	0.00109514
57565	-0.00121521	0.00107911
57600	-0.000929099	0.00106865