File: Data_27_Experiment/CA_205_C01.txt
time/s	Ewe/V	<I>/mA
1	2.99899	434.275
40	2.99909	42.5057
79	2.99882	30.0449
118	2.99903	26.618
157	2.99913	24.8989
196	2.99884	24.0304
235	2.99899	24.0375
274	2.99898	24.2834
313	2.99896	24.4374
352	2.99911	24.565
391	2.99892	24.4793
430	2.99899	24.4664
469	2.99898	24.4332
508	2.99901	24.6122
547	2.99911	24.7812
586	2.99896	25.4856
625	2.99909	25.6077
664	2.99898	25.996
703	2.99915	26.4256
742	2.99892	26.6301
781	2.99913	27.0276
820	2.99901	27.435
859	2.99903	28.0061
898	2.99907	28.2049
937	2.99903	28.5156
976	2.99915	28.6508
1015	2.99907	29.1995
1054	2.99896	29.6314
1093	2.99913	29.9819
1132	2.99919	30.2541
1171	2.99913	30.638
1210	2.99901	31.2345
1249	2.99899	31.2628
1288	2.99903	31.3161
1327	2.99907	31.83
1366	2.99903	32.2876
1405	2.99905	32.0707
1444	2.99905	32.0103
1483	2.99913	31.838
1522	2.99903	31.9556
1561	2.99901	32.0588
1600	2.99896	31.922
1639	2.99917	31.6482
1678	2.99905	31.564
1717	2.99903	31.3274
1756	2.99903	31.4389
1795	2.99898	31.4753
1833.95	-0.000961469	-3.79726
1872.95	-0.000904246	-1.79916
1911.95	-0.00105684	-1.1859
1950.95	-0.00092332	-0.784076
1989.95	-0.00092332	-0.577079
2028.95	-0.000885172	-0.253758
2067.95	-0.000904246	-0.188549
2106.95	-0.000904246	-0.192239
2145.95	-0.000942394	-0.211573
2184.95	-0.000866098	-0.0384096
2223.95	-0.000866098	-0.00506508
2262.97	-0.000789802	-0.0688852
2301.97	-0.000827949	-0.114255
2340.97	-0.000999616	-0.10653
2379.97	-0.000789802	0.0352226
2418.97	-0.000904246	-0.0217066
2457.97	-0.00092332	-0.0476983
2496.98	-0.000885172	-0.0856579
2535.98	-0.000942394	0.0140339
2574.98	-0.000847024	-0.00227462
2613.98	-0.000866098	-0.0208729
2652.98	-0.000866098	-0.0606557
2691.98	-0.00092332	-0.0226587
2730.98	-0.000904246	0.0317737
2769.98	-0.000866098	-0.00500552
2808.99	-0.000942394	-0.0362297
2847.99	-0.000942394	-0.0461748
2887.01	-0.000808876	0.0369215
2926.01	-0.000904246	0.00310654
2965.01	-0.000942394	-0.0191601
3004.03	-0.000713505	-0.0445129
3043.04	-0.000942394	0.0237633
3082.04	-0.000885172	0.0176444
3121.04	-0.000885172	-0.00607364
3160.04	-0.000942394	-0.0340605
3199.06	-0.000999616	-0.00348511
3238.06	-0.000751653	0.0265241
3277.06	-0.00092332	0.00262604
3316.06	-0.000904246	-0.0203437
3355.06	-0.000847024	-0.0238885
3394.07	-0.00092332	0.0303872
3433.07	-0.000847024	0.0110958
3472.07	-0.000770727	-0.0136958
3511.09	-0.00103776	-0.0285965
3550.1	-0.00092332	0.0234275
3589.1	-0.000904246	0.0160373
3628.12	-0.000904246	-0.000394181
3667.12	-0.000885172	-0.0229296
3706.12	-0.000789802	0.0053958
3745.14	-0.000827949	0.0223364
3784.16	-0.00092332	0.00273126
3823.18	-0.000866098	-0.0167891
3862.2	-0.000961469	0.0026444
3901.22	-0.00092332	0.0261635
3940.23	-0.000847024	0.0121488
3979.23	-0.000770727	-0.0101076
4018.23	-0.000827949	-0.0182521
4057.23	-0.000827949	0.0232643
4096.25	-0.000904246	0.0152693
4135.25	-0.000885172	0.00039887
4174.25	-0.000847024	-0.0170902
4213.26	-0.000885172	0.0192108
4252.28	-0.000789802	0.0176843
4291.31	-0.000904246	0.00304187
4330.34	-0.00092332	-0.0142108
4369.36	-0.000904246	0.0134483
4408.36	-0.00092332	0.0207295
4447.37	-0.000885172	0.00988355
4486.4	-0.000961469	-0.00839851
4525.42	-0.000827949	-0.000749775
4564.46	-0.000751653	0.0203077
4603.49	-0.000866098	0.0110304
4642.49	-0.000808876	-0.000486496
4681.5	-0.000866098	-0.013684
4720.5	-0.000751653	0.0179234
4759.51	-0.000751653	0.0133124
4798.51	-0.000885172	0.00229063
4837.51	-0.000885172	-0.0116477
4876.53	-0.000866098	0.0146986
4915.56	-0.00092332	0.0157635
4954.56	-0.000885172	0.00873047
4993.56	-0.000961469	-0.00459274
5032.56	-0.000866098	0.00291354
5071.56	-0.000904246	0.0176946
5110.57	-0.000866098	0.0100495
5149.57	-0.000847024	-0.000212258
5188.59	-0.000866098	-0.00926348
5227.59	-0.000885172	0.0160751
5266.59	-0.000770727	0.0121913
5305.59	-0.000885172	0.00267404
5344.59	-0.000847024	-0.00782239
5383.6	-0.000770727	0.01422
5422.6	-0.000770727	0.0140646
5461.62	-0.000789802	0.0015138
5500.62	-0.000827949	-0.00341369
5539.65	-0.000808876	0.00747666
5578.67	-0.000866098	0.01597
5617.74	-0.000866098	0.0100157
5656.75	-0.000904246	0.000249848
5695.75	-0.000847024	-0.00460955
5734.75	-0.000866098	0.0161987
5773.75	-0.000866098	0.0118358
5812.75	-0.00092332	0.00242193
5851.78	-0.000827949	-0.00574594
5890.78	-0.000751653	0.0144671
5929.78	-0.000866098	0.0130796
5968.78	-0.00092332	0.00208182
6007.8	-0.000904246	-0.00355159
6046.8	-0.000789802	0.0113177
6085.8	-0.000866098	0.0139285
6124.8	-0.000885172	0.00925613
6163.8	-0.000827949	0.000787396
6202.8	-0.000847024	-0.00176082
6241.8	-0.000732579	0.0147108
6280.8	-0.000808876	0.0100642
6319.8	-0.000808876	0.00210593
6358.82	-0.000866098	-0.0042585
6397.82	-0.000808876	0.0136437
6436.82	-0.000827949	0.0112451
6475.82	-0.000885172	0.00404398
6514.84	-0.000827949	-0.00318771
6553.84	-0.000789802	0.0117279
6592.85	-0.000751653	0.0141116
6631.85	-0.000770727	0.0111421
6670.85	-0.000751653	0.00235308
6709.88	-0.000808876	0.00399823
6748.88	-0.000770727	0.0164378
6787.92	-0.000866098	0.0132521
6826.94	-0.000942394	0.00758711
6865.94	-0.000827949	0.00175482
6904.94	-0.000904246	0.0156338
6943.94	-0.000789802	0.013935
6982.94	-0.000961469	0.0104556
7021.96	-0.000808876	0.00303589
7060.98	-0.000980543	0.0148351
7100	-0.000942394	0.0157519
7139	-0.000866098	0.0128519
7178	-0.000885172	0.00398595
7217	-0.000827949	0.0119369
7256.02	-0.000885172	0.0152531
7295.02	-0.00092332	0.0124237
7334.02	-0.000904246	0.003183
7373.02	-0.000789802	0.00223885
7412.02	-0.000847024	0.0136383
7451.02	-0.00092332	0.0117374
7490.04	-0.000942394	0.00797985
7529.04	-0.000999616	0.000802962
7568.04	-0.000827949	0.0122463
7607.06	-0.000789802	0.0112578
7646.06	-0.000885172	0.00862212
7685.06	-0.000847024	0.00209293
7724.06	-0.000866098	0.0104583
7763.06	-0.000827949	0.0124765
7802.06	-0.000904246	0.0101608
7841.09	-0.000827949	0.00296332
7880.14	-0.000808876	0.00260084
7919.15	-0.000847024	0.012862
7958.15	-0.000961469	0.0103645
7997.18	-0.000866098	0.00385747
8036.18	-0.000770727	-0.000381169
8075.18	-0.000942394	0.0110496
8114.18	-0.000904246	0.0099061
8153.2	-0.000942394	0.00777527
8192.2	-0.000866098	0.00145393
8231.2	-0.000827949	0.010701
8270.23	-0.000847024	0.0106664
8309.23	-0.000789802	0.00804469
8348.24	-0.000885172	0.0013426
8387.24	-0.000713505	0.0018022
8426.24	-0.000866098	0.0119035
8465.26	-0.000866098	0.0106455
8504.28	-0.000827949	0.00170832
8543.28	-0.000732579	0.00343971
8582.28	-0.000904246	0.0146552
8621.28	-0.000885172	0.0137751
8660.28	-0.000866098	0.0106711
8699.3	-0.000980543	0.00429147
8738.3	-0.000713505	0.0130818
8777.3	-0.000847024	0.0135767
8816.3	-0.000732579	0.0124123
8855.3	-0.00101869	0.00831842
8894.3	-0.000827949	0.00999852
8933.3	-0.000980543	0.0165054
8972.3	-0.000808876	0.0149372
9011.3	-0.000751653	0.0112109
9050.3	-0.000904246	0.00840042
9089.3	-0.00092332	0.0165752
9128.3	-0.000961469	0.0155859
9167.3	-0.000827949	0.0132899
9206.3	-0.000770727	0.00876918
9245.3	-0.000827949	0.0154148
9284.3	-0.00101869	0.0162062
9323.3	-0.000961469	0.01468
9362.3	-0.000866098	0.0104384
9401.3	-0.000942394	0.0122999
9440.3	-0.000751653	0.0170836
9479.3	-0.000904246	0.0159569
9518.3	-0.00092332	0.0131623
9557.3	-0.000789802	0.0113741
9596.3	-0.000808876	0.0183564
9635.3	-0.000904246	0.0174446
9674.3	-0.000847024	0.0156802
9713.3	-0.000866098	0.0121799
9752.3	-0.00092332	0.0178291
9791.3	-0.000827949	0.018217
9830.3	-0.000961469	0.0171554
9869.3	-0.000904246	0.0138526
9908.3	-0.000827949	0.0159653
9947.3	-0.000885172	0.0193189
9986.3	-0.000904246	0.018193
10025.3	-0.000847024	0.0154893
10064.3	-0.000847024	0.013741
10103.3	-0.000942394	0.0188487
10142.3	-0.000904246	0.0182333
10181.3	-0.000942394	0.0171093
10220.3	-0.000980543	0.0140936
10259.3	-0.000866098	0.0189725
10298.3	-0.000885172	0.0185033
10337.3	-0.000751653	0.0172605
10376.3	-0.000827949	0.0141506
10415.3	-0.00092332	0.0161869
10454.3	-0.000904246	0.0183394
10493.3	-0.000885172	0.0176038
10532.3	-0.000770727	0.0157025
10571.3	-0.000961469	0.0149953
10610.3	-0.000904246	0.0192593
10649.3	-0.000827949	0.0177932
10688.3	-0.000942394	0.0153974
10727.3	-0.000980543	0.0123377
10766.3	-0.000827949	0.0172801
10805	-2.00099	-86.8772
10844	-2.001	-46.4737
10883	-2.00087	-30.5037
10922	-2.00089	-23.6695
10961	-2.00102	-19.3368
11000	-2.00085	-15.6896
11039	-2.00097	-13.8521
11078	-2.001	-12.4565
11117	-2.00087	-11.5639
11156	-2.00083	-10.7482
11195	-2.00112	-10.0688
11234	-2.00099	-9.53258
11273	-2.00097	-9.11405
11312	-2.00097	-8.62432
11351	-2.00095	-8.50978
11390	-2.00106	-8.17556
11429	-2.00093	-8.13754
11468	-2.00104	-7.65616
11507	-2.00095	-7.42899
11546	-2.00087	-8.97283
11585	-2.00087	-7.10438
11624	-2.00083	-6.96721
11663	-2.00087	-6.96039
11702	-0.000989707	43.9364
11741	-0.00081804	2.48285
11780	-0.000856188	1.50429
11819	-0.000989707	1.15494
11858	-0.000932485	0.99086
11897	-0.000894336	0.873482
11936	-0.000932485	0.808962
11975	-0.001066	0.739088
12014	-0.000932485	0.689701
12053	-0.000970633	0.647088
12092	-0.000798966	0.618096
12131	-0.00100878	0.596121
12170	-0.000837114	0.562311
12209	-0.00100878	0.540389
12248	-0.000875262	0.520886
12287	-0.000932485	0.518894
12326	-0.000989707	0.492802
12365	-0.000932485	0.479777
12404	-0.000913411	0.466674
12443	-0.000951559	0.467626
12482	-0.000970633	0.452168
12521	-0.000856188	0.441051
12560	-0.00104693	0.430321
12599	-0.000932485	0.426919
12638	-0.000989707	0.424907
12677	-0.000951559	0.411553
12716	-0.000989707	0.403819
12755	-0.000989707	0.39742
12794	-0.000875262	0.402088
12833	-0.000894336	0.38789
12872	-0.000913411	0.381898
12911	-0.000932485	0.374144
12950	-0.000932485	0.377811
12989	-0.000856188	0.368827
13028	-0.00104693	0.362564
13067	-0.000951559	0.355461
13106	-0.000856188	0.35397
13145	-0.000989707	0.352898
13184	-0.000894336	0.343618
13223	-0.000932485	0.338053
13262	-0.000875262	0.334044
13301	-0.000894336	0.338994
13340	-0.000951559	0.329005
13379	-0.000989707	0.325638
13418	-0.000951559	0.319905
13457	-0.000970633	0.323442
13496	-0.000913411	0.315821
13535	-0.000760818	0.311549
13574	-0.000856188	0.306144
13613	-0.00102786	0.305425
13652	-0.000989707	0.30461
13691	-0.000741744	0.298272
13730	-0.00100878	0.294404
13769	-0.000970633	0.291251
13808	-0.000837114	0.295383
13847	-0.000722669	0.287119
13886	-0.000970633	0.283946
13925	-0.00081804	0.279719
13964	-0.000970633	0.283349
14003	-0.000932485	0.277315
14042	-0.000989707	0.273752
14081	-0.001066	0.26935
14120	-0.00081804	0.269453
14159	-0.000970633	0.268635
14198	-0.000856188	0.263209
14237	-0.000894336	0.259759
14276	-0.000970633	0.257154
14315	-0.000970633	0.260487
14354	-0.000970633	0.2536
14393	-0.00081804	0.250895
14432	2.99886	74.8838
14471	2.99899	50.3715
14510	2.99905	42.2445
14549	2.99911	38.4439
14588	2.9989	36.0284
14627	2.99896	34.7003
14666	2.99896	33.7341
14705	2.99898	33.581
14744	2.99899	33.4094
14783	2.99898	33.9967
14822	2.99901	34.5208
14861	2.99896	34.8153
14900	2.99903	35.5402
14939	2.99909	36.0485
14978	2.99907	36.28
15017	2.99899	36.9337
15056	2.99909	37.0561
15095	2.99911	37.25
15134	2.99913	37.7136
15173	2.99894	38.1359
15212	2.99905	38.9616
15251	2.99915	39.2336
15290	2.9992	39.8387
15329	2.99901	40.4759
15368	2.99892	41.1002
15407	2.99911	41.274
15446	2.99919	41.7495
15485	2.99903	42.1343
15524	2.99905	42.4429
15563	2.99907	42.9937
15602	2.99901	43.6236
15641	2.99877	44.1203
15680	2.99903	44.2048
15719	2.99919	44.3113
15758	2.99913	44.687
15797	2.99911	44.6087
15836	2.99909	44.7399
15875	2.99901	44.6627
15914	2.99909	44.6418
15953	2.99926	44.8852
15992	2.99901	44.6493
16031	2.99905	44.8859
16070	2.99899	44.9159
16109	2.99894	44.6963
16148	2.99911	44.9988
16187	2.99899	45.1215
16226	-0.000827949	-10.9694
16265	-0.000866098	-2.49522
16304	-0.000827949	-1.39192
16343	-0.000980543	-0.996445
16382	-0.000904246	-0.766495
16421	-0.000980543	-0.654704
16460	-0.000789802	-0.595492
16499	-0.000885172	-0.556445
16538	-0.000885172	-0.499055
16577	-0.000770727	-0.485311
16616	-0.000847024	-0.474049
16655	-0.000789802	-0.469921
16694	-0.000904246	-0.428894
16733	-0.000866098	-0.417431
16772	-0.000904246	-0.407839
16811	-0.000847024	-0.407606
16850	-0.000942394	-0.378833
16889	-0.000961469	-0.362537
16928	-0.000904246	-0.354999
16967	-0.00092332	-0.349703
17006	-0.000885172	-0.333237
17045	-0.000789802	-0.311126
17084	-0.000713505	-0.306409
17123	-0.000885172	-0.304492
17162	-0.000808876	-0.302158
17201	-0.000866098	-0.278023
17240	-0.000866098	-0.27293
17279	-0.000904246	-0.2694
17318	-0.00092332	-0.270854
17357	-0.000904246	-0.252074
17396	-0.00092332	-0.244073
17435	-0.00101869	-0.241229
17474	-0.000904246	-0.242686
17513	-0.00101869	-0.231797
17552	-0.000904246	-0.217115
17591	-0.000789802	-0.214384
17630	-0.000847024	-0.215048
17669	-0.000789802	-0.213345
17708	-0.000904246	-0.195955
17747	-0.000847024	-0.193264
17786	-0.000885172	-0.192811
17825	-0.000885172	-0.196006
17864	-0.000885172	-0.180872
17903	-0.000866098	-0.175784
17942	-0.00092332	-0.174317
17981	-0.000961469	-0.178678
18020	-0.000866098	-0.171705
18059	-0.000942394	-0.163271
18098	-0.000885172	-0.162555
18137	-0.000904246	-0.16456
18176	-0.000808876	-0.163332
18215	-0.000961469	-0.150594
18254	-0.00103776	-0.150126
18293	-0.000961469	-0.150786
18332	-0.000751653	-0.154391
18371	-0.00092332	-0.141795
18410	-0.00101869	-0.138786
18449	-0.000904246	-0.138175
18488	-0.000999616	-0.142521
18527	-0.00101869	-0.134714
18566	-0.000827949	-0.127323
18605	-0.000847024	-0.126007
18644	-0.000885172	-0.12835
18683	-0.000847024	-0.127754
18722	-0.000847024	-0.117203
18761	-0.00101869	-0.115401
18800	-0.000847024	-0.116441
18839	-0.000732579	-0.119177
18878	-0.000808876	-0.108824
18917	-0.000885172	-0.106875
18956	-0.000904246	-0.10773
18995	-0.000866098	-0.111666
19034	-0.00103776	-0.104017
19073	-0.000942394	-0.0985932
19112	-0.000789802	-0.0985095
19151	-0.00092332	-0.101496
19190	-0.000904246	-0.100017
19229	-0.000827949	-0.0913743
19268	-0.000847024	-0.0909301
19307	-0.00092332	-0.0925229
19346	-0.000847024	-0.0954431
19385	-0.000827949	-0.0867795
19424	-0.000942394	-0.0851687
19463	-0.000808876	-0.0854842
19502	-0.000885172	-0.0890891
19541	-0.000808876	-0.0832112
19580	-0.00092332	-0.0792658
19619	-0.000770727	-0.0795363
19658	-0.000866098	-0.0825116
19697	-0.000732579	-0.0807809
19736	-0.000866098	-0.0730307
19775	-0.00092332	-0.0726249
19814	-0.000789802	-0.0741856
19853	-0.000847024	-0.0760932
19892	-0.000885172	-0.0677395
19931	-0.000885172	-0.0666409
19970	-0.00092332	-0.0665209
20009	-0.00092332	-0.0691408
20048	-0.000866098	-0.0633667
20087	-0.000904246	-0.0601487
20126	-0.000999616	-0.0611695
20165	-0.000866098	-0.0652126
20204	-0.000961469	-0.0650084
20243	-0.000866098	-0.060282
20282	-0.000885172	-0.0616103
20321	-0.000904246	-0.0642206
20360	-0.000847024	-0.0672686
20399	-0.000770727	-0.061067
20438	-0.000808876	-0.0605655
20477	-0.000866098	-0.0617047
20516	-0.000808876	-0.0645406
20555	-0.000999616	-0.0592992
20594	-0.000827949	-0.0567868
20633	-0.000827949	-0.0583254
20672	-0.000789802	-0.0604757
20711	-0.000751653	-0.0583387
20750	-0.000827949	-0.0535145
20789	-0.000827949	-0.0539566
20828	-0.000885172	-0.0560999
20867	-0.000885172	-0.0568856
20906	-0.000885172	-0.0495598
20945	-0.000904246	-0.0485109
20984	-0.00092332	-0.0491128
21023	-0.000808876	-0.0512575
21062	-0.000961469	-0.0461465
21101	-0.000885172	-0.0436591
21140	-0.00092332	-0.0437915
21179	-0.000770727	-0.045869
21218	-0.000789802	-0.0442721
21257	-0.000885172	-0.0403642
21296	-0.000885172	-0.0405228
21335	-0.000847024	-0.042198
21374	-0.000827949	-0.0435276
21413	-0.000789802	-0.0383598
21452	-0.000827949	-0.0372813
21491	-0.000770727	-0.0373824
21530	-0.000732579	-0.0392462
21569	-0.000827949	-0.0349514
21608	-0.000827949	-0.0335205
21647	-0.00092332	-0.0335924
21686	-0.000961469	-0.0356429
21725	-0.000885172	-0.0339585
21764	-0.000827949	-0.0310249
21803	-0.000751653	-0.0308721
21842	-0.000942394	-0.0320326
21881	-0.000827949	-0.0322848
21920	-0.000961469	-0.0275564
21959	-0.000885172	-0.0268663
21998	-0.000732579	-0.0275853
22037	-0.000827949	-0.0293309
22076	-0.00092332	-0.0257027
22115	-0.000770727	-0.02461
22154	-0.000942394	-0.0249065
22193	-0.000904246	-0.0268918
22232	-0.000789802	-0.0258699
22271	-0.000847024	-0.0238493
22310	-0.000999616	-0.0244415
22349	-0.000770727	-0.0256364
22388	-0.000942394	-0.0260119
22427	-0.000808876	-0.021908
22466	-0.000808876	-0.0211187
22505	-0.000961469	-0.0214791
22544	-0.000942394	-0.0230537
22583	-0.000866098	-0.0199644
22622	-0.000847024	-0.0197608
22661	-0.000904246	-0.0202311
22700	-0.000866098	-0.0221886
22739	-0.000866098	-0.020892
22778	-0.00092332	-0.0187916
22817	-0.000904246	-0.0184822
22856	-0.000808876	-0.0192664
22895	-0.000904246	-0.0191803
22934	-0.000885172	-0.016152
22973	-0.000866098	-0.0158034
23012	-0.000942394	-0.0161995
23051	-0.000751653	-0.0175975
23090	-0.00101869	-0.0150024
23129	-0.000885172	-0.0145035
23168	-0.000808876	-0.0148271
23207	-0.000961469	-0.0159613
23246	-0.000980543	-0.0141883
23285	-0.00092332	-0.0128193
23324	-0.000808876	-0.0130146
23363	-0.000885172	-0.0141814
23402	-0.000866098	-0.0144864
23441	-0.000980543	-0.0124014
23480	-0.000866098	-0.0121417
23519	-0.000827949	-0.0126035
23558	-0.000885172	-0.0135244
23597	-0.000866098	-0.0110483
23636	-0.000808876	-0.0104721
23675	-0.000942394	-0.0101686
23714	-0.000789802	-0.0112624
23753	-0.000808876	-0.00967404
23792	-0.000866098	-0.00869824
23831	-0.000866098	-0.008463
23870	-0.000942394	-0.0091449
23909	-0.000847024	-0.008804
23948	-0.000885172	-0.00707026
23987	-0.000656283	-0.00714655
24026	-0.000732579	-0.00769978
24065	-0.000904246	-0.00844847
24104	-0.000942394	-0.00655661
24143	-0.000885172	-0.00708609
24182	-0.000904246	-0.00762393
24221	-0.000808876	-0.00884388
24260	-0.000808876	-0.00762991
24299	-0.000942394	-0.00715802
24338	-0.000961469	-0.00774665
24377	-0.000694431	-0.00891601
24416	-0.000885172	-0.0088933
24455	-0.000866098	-0.00712176
24494	-0.000827949	-0.00699667
24533	-0.000808876	-0.00763837
24572	-0.000847024	-0.00855338
24611	-0.000904246	-0.00668853
24650	-0.000866098	-0.00601468
24689	-0.000713505	-0.00592578
24728	-0.000789802	-0.00693111
24767	-0.000866098	-0.0056393
24806	-0.000942394	-0.00497151
24845	-0.00092332	-0.00533375
24884	-0.000885172	-0.00642593
24923	-0.000847024	-0.00592746
24962	-0.000885172	-0.00383039
25001	-0.000789802	-0.00357686
25040	-0.000885172	-0.00427741
25079	-0.000904246	-0.00445935
25118	-0.000770727	-0.00237194
25157	-0.000866098	-0.00189183
25196	-0.000961469	-0.00183433
25235	-2.00099	-51.9144
25274	-2.00078	-37.1266
25313	-2.00097	-27.1383
25352	-2.00099	-20.867
25391	-2.00097	-16.9027
25430	-2.00087	-14.7456
25469	-2.00099	-13.0281
25508	-2.00089	-12.297
25547	-2.00089	-11.3832
25586	-2.00097	-10.7799
25625	-2.00087	-10.4239
25664	-2.00093	-10.6705
25703	-2.00087	-10.3742
25742	-2.00102	-10.2709
25781	-2.00091	-9.98566
25820	-2.00102	-9.83075
25859	-2.00091	-9.72768
25898	-2.00095	-9.5068
25937	-2.00079	-9.48187
25976	-2.00091	-9.54661
26015	-2.00089	-9.33441
26054	-2.00097	-8.89791
26093	-2.00097	-8.82201
26132	-0.00110415	3.34462
26171	-0.000856188	1.5389
26210	-0.000970633	1.1085
26249	-0.00102786	0.918019
26288	-0.00102786	0.809565
26327	-0.000989707	0.715216
26366	-0.000913411	0.651057
26405	-0.001066	0.598134
26444	-0.000779892	0.566321
26483	-0.00100878	0.526747
26522	-0.000760818	0.495597
26561	-0.000875262	0.464256
26600	-0.000798966	0.443548
26639	-0.00081804	0.424927
26678	-0.00104693	0.403588
26717	-0.000951559	0.38505
26756	-0.000932485	0.369471
26795	-0.000856188	0.36135
26834	-0.000894336	0.344547
26873	-0.000837114	0.332046
26912	-0.000913411	0.319087
26951	-0.000989707	0.314809
26990	-0.000856188	0.304013
27029	-0.00100878	0.295167
27068	-0.000894336	0.285992
27107	-0.00102786	0.281846
27146	-0.000894336	0.276516
27185	-0.00081804	0.269461
27224	-0.000951559	0.262714
27263	-0.000989707	0.257012
27302	-0.000798966	0.256955
27341	-0.000894336	0.250469
27380	-0.000894336	0.245889
27419	-0.00108508	0.240543
27458	-0.00100878	0.241627
27497	-0.00102786	0.236981
27536	-0.000894336	0.233449
27575	-0.000932485	0.228688
27614	-0.000932485	0.228031
27653	-0.000951559	0.226183
27692	-0.000932485	0.223152
27731	-0.000970633	0.219775
27770	-0.00100878	0.217387
27809	-0.001066	0.219217
27848	-0.00081804	0.215825
27887	-0.000932485	0.213264
27926	-0.000856188	0.210222
27965	-0.000875262	0.212553
28004	-0.000970633	0.209617
28043	-0.000760818	0.208061
28082	-0.000970633	0.204912
28121	-0.00081804	0.204812
28160	-0.000989707	0.203831
28199	-0.000913411	0.2017
28238	-0.000875262	0.199095
28277	-0.000894336	0.197838
28316	-0.000856188	0.19955
28355	-0.001066	0.197037
28394	-0.000856188	0.195356
28433	-0.000951559	0.192878
28472	-0.000875262	0.195072
28511	-0.00104693	0.192456
28550	-0.000932485	0.191013
28589	-0.00081804	0.188312
28628	-0.00081804	0.189054
28667	-0.00112323	0.188229
28706	-0.000837114	0.186534
28745	-0.001066	0.184291
28784	-0.000932485	0.18348
28823	2.99892	108.323
28862	2.99898	75.8655
28901	2.99898	57.4998
28940	2.99919	48.1336
28979	2.99894	42.5099
29018	2.99905	40.2473
29057	2.99905	38.9548
29096	2.99913	38.2719
29135	2.99905	38.1461
29174	2.99903	37.3984
29213	2.99919	37.322
29252	2.99922	37.8512
29291	2.99899	37.1972
29330	2.99901	36.2869
29369	2.99903	36.9836
29408	2.99903	38.3671
29447	2.99907	39.684
29486	2.99911	40.7593
29525	2.99913	42.0552
29564	2.99915	42.9444
29603	2.99907	44.034
29642	2.99907	44.9379
29681	2.99913	45.7576
29720	2.99911	46.2542
29759	2.99894	46.8525
29798	2.99905	47.2774
29837	2.99913	47.7118
29876	2.99909	48.0656
29915	2.99919	47.7708
29954	2.99917	47.746
29993	2.99892	47.8668
30032	2.99909	47.9451
30071	2.99888	48.0586
30110	2.99909	48.0903
30149	2.99905	48.2075
30188	2.99907	48.2179
30227	2.99898	48.3394
30266	2.99909	48.5134
30305	2.99892	48.6739
30344	2.99901	48.7192
30383	2.99909	48.7353
30422	2.99909	48.7413
30461	2.99896	48.8344
30500	2.99899	48.9172
30539	2.99903	48.855
30578	2.99911	48.7878
30617	-0.000789802	-22.9726
30656	-0.00092332	-4.68465
30695	-0.00105684	-2.0535
30734	-0.000732579	-1.32566
30773	-0.000961469	-0.996478
30812	-0.000847024	-0.823392
30851	-0.000885172	-0.701661
30890	-0.000770727	-0.622431
30929	-0.000942394	-0.573705
30968	-0.000980543	-0.547703
31007	-0.000866098	-0.525824
31046	-0.000904246	-0.496599
31085	-0.000866098	-0.482095
31124	-0.000770727	-0.469606
31163	-0.00092332	-0.461643
31202	-0.00092332	-0.436827
31241	-0.000904246	-0.427369
31280	-0.000789802	-0.420449
31319	-0.000847024	-0.419228
31358	-0.000885172	-0.401558
31397	-0.000866098	-0.391829
31436	-0.000808876	-0.384722
31475	-0.00092332	-0.382573
31514	-0.000808876	-0.370985
31553	-0.000694431	-0.356893
31592	-0.000942394	-0.35012
31631	-0.000789802	-0.346431
31670	-0.000847024	-0.341296
31709	-0.000827949	-0.323608
31748	-0.000770727	-0.317736
31787	-0.000827949	-0.314301
31826	-0.000847024	-0.313324
31865	-0.000789802	-0.300494
31904	-0.000866098	-0.294733
31943	-0.000866098	-0.291244
31982	-0.000999616	-0.291129
32021	-0.000961469	-0.283255
32060	-0.000885172	-0.275408
32099	-0.00092332	-0.273041
32138	-0.000866098	-0.273017
32177	-0.000942394	-0.271205
32216	-0.000847024	-0.261264
32255	-0.000961469	-0.259061
32294	-0.000732579	-0.258373
32333	-0.000904246	-0.258509
32372	-0.000980543	-0.248258
32411	-0.000885172	-0.24465
32450	-0.000904246	-0.24284
32489	-0.00092332	-0.244361
32528	-0.000904246	-0.238935
32567	-0.000847024	-0.234164
32606	-0.000961469	-0.232806
32645	-0.000904246	-0.233102
32684	-0.000904246	-0.231765
32723	-0.000961469	-0.223944
32762	-0.000847024	-0.222981
32801	-0.000827949	-0.223498
32840	-0.000942394	-0.225542
32879	-0.000885172	-0.217719
32918	-0.000961469	-0.214964
32957	-0.000904246	-0.214681
32996	-0.000732579	-0.217777
33035	-0.000885172	-0.213455
33074	-0.000713505	-0.209157
33113	-0.000789802	-0.208315
33152	-0.000866098	-0.210211
33191	-0.000866098	-0.209702
33230	-0.000866098	-0.203688
33269	-0.000827949	-0.203233
33308	-0.000751653	-0.203861
33347	-0.000808876	-0.205219
33386	-0.000770727	-0.196859
33425	-0.000866098	-0.194553
33464	-0.00107591	-0.193857
33503	-0.000827949	-0.195675
33542	-0.00092332	-0.190096
33581	-0.000751653	-0.185868
33620	-0.000847024	-0.184995
33659	-0.000885172	-0.186751
33698	-0.000885172	-0.186118
33737	-0.000904246	-0.180358
33776	-0.000789802	-0.179432
33815	-0.000808876	-0.179042
33854	-0.000904246	-0.179364
33893	-0.000999616	-0.171795
33932	-0.00092332	-0.168471
33971	-0.00092332	-0.166286
34010	-0.000904246	-0.167522
34049	-0.000999616	-0.162577
34088	-0.000904246	-0.159421
34127	-0.000847024	-0.158421
34166	-0.000885172	-0.15937
34205	-0.00092332	-0.15759
34244	-0.000808876	-0.151293
34283	-0.000961469	-0.149754
34322	-0.000751653	-0.150624
34361	-0.000961469	-0.151245
34400	-0.000866098	-0.145318
34439	-0.000904246	-0.143452
34478	-0.000751653	-0.142822
34517	-0.000866098	-0.144009
34556	-0.000675357	-0.140157
34595	-0.000999616	-0.137381
34634	-0.00092332	-0.13652
34673	-0.000999616	-0.137611
34712	-0.000847024	-0.136665
34751	-0.000866098	-0.132457
34790	-0.000847024	-0.131727
34829	-0.000808876	-0.131342
34868	-0.000827949	-0.130934
34907	-0.000827949	-0.125497
34946	-0.000942394	-0.123844
34985	-0.000789802	-0.123493
35024	-0.000961469	-0.124821
35063	-0.000942394	-0.121508
35102	-0.000847024	-0.119283
35141	-0.000694431	-0.118526
35180	-0.000866098	-0.119397
35219	-0.000770727	-0.118194
35258	-0.000942394	-0.11497
35297	-0.000942394	-0.114306
35336	-0.000808876	-0.114729
35375	-0.000885172	-0.115387
35414	-0.000789802	-0.110983
35453	-0.000770727	-0.109418
35492	-0.000847024	-0.109095
35531	-0.000942394	-0.11035
35570	-0.000789802	-0.107902
35609	-0.000885172	-0.105953
35648	-0.000751653	-0.104936
35687	-0.000942394	-0.105373
35726	-0.00092332	-0.103855
35765	-0.000961469	-0.100918
35804	-0.000961469	-0.100003
35843	-0.000827949	-0.100102
35882	-0.000751653	-0.100008
35921	-0.000770727	-0.0968611
35960	-0.000980543	-0.0962681
35999	-0.000827949	-0.0960975
36038	-0.000808876	-0.0969389
36077	-0.000808876	-0.0944419
36116	-0.000904246	-0.0934436
36155	-0.000713505	-0.0932549
36194	-0.000904246	-0.0943256
36233	-0.000827949	-0.0933966
36272	-0.00092332	-0.0910027
36311	-0.000847024	-0.0900133
36350	-0.000847024	-0.0896691
36389	-0.000847024	-0.0895616
36428	-0.000713505	-0.086686
36467	-0.000942394	-0.0859367
36506	-0.000827949	-0.0854121
36545	-0.000847024	-0.0854083
36584	-0.000866098	-0.083101
36623	-0.000885172	-0.0823524
36662	-0.000961469	-0.0823363
36701	-0.000904246	-0.0826856
36740	-0.000866098	-0.0812051
36779	-0.000904246	-0.0793414
36818	-0.000999616	-0.0789499
36857	-0.000885172	-0.0790524
36896	-0.000847024	-0.0787972
36935	-0.000866098	-0.0762169
36974	-0.000866098	-0.07514
37013	-0.000885172	-0.0747824
37052	-0.000980543	-0.0753779
37091	-0.000789802	-0.0732445
37130	-0.000904246	-0.0720771
37169	-0.000789802	-0.0715865
37208	-0.000904246	-0.0716366
37247	-0.000808876	-0.0700682
37286	-0.000885172	-0.0686408
37325	-0.000980543	-0.0682906
37364	-0.000827949	-0.0681973
37403	-0.000866098	-0.0674099
37442	-0.000808876	-0.0652219
37481	-0.000827949	-0.0647297
37520	-0.000827949	-0.0646373
37559	-0.000961469	-0.0647671
37598	-0.000885172	-0.0626837
37637	-0.00092332	-0.061571
37676	-0.000808876	-0.0610344
37715	-0.000770727	-0.0606396
37754	-0.000827949	-0.0589558
37793	-0.000732579	-0.0572947
37832	-0.000866098	-0.0568033
37871	-0.000904246	-0.0571508
37910	-0.000942394	-0.0563522
37949	-0.000827949	-0.0538418
37988	-0.000904246	-0.0527787
38027	-0.000961469	-0.0524557
38066	-0.000904246	-0.0524634
38105	-0.000770727	-0.0507171
38144	-0.000885172	-0.0500296
38183	-0.000885172	-0.0495595
38222	-0.000904246	-0.0499221
38261	-0.000827949	-0.0487753
38300	-0.000789802	-0.0472999
38339	-0.000732579	-0.0464527
38378	-0.000808876	-0.0465139
38417	-0.00092332	-0.0459177
38456	-0.000847024	-0.0443269
38495	-0.000847024	-0.043722
38534	-0.000808876	-0.0438891
38573	-0.000827949	-0.0442194
38612	-0.000847024	-0.0429678
38651	-0.000827949	-0.0422688
38690	-0.000942394	-0.0416327
38729	-0.000961469	-0.0418388
38768	-0.000847024	-0.0409154
38807	-0.000713505	-0.0403399
38846	-0.000885172	-0.0401901
38885	-0.000885172	-0.0402222
38924	-0.000808876	-0.0395273
38963	-0.000904246	-0.0382027
39002	-0.000770727	-0.0374995
39041	-0.000885172	-0.0377529
39080	-0.000942394	-0.038103
39119	-0.000904246	-0.0367224
39158	-0.000885172	-0.0361325
39197	-0.000942394	-0.0362074
39236	-0.000885172	-0.0367
39275	-0.000770727	-0.0357705
39314	-0.000961469	-0.0350221
39353	-0.000808876	-0.0345678
39392	-0.000885172	-0.0347033
39431	-0.000732579	-0.0342728
39470	-0.000770727	-0.0335978
39509	-0.000904246	-0.0334844
39548	-0.000827949	-0.0334186
39587	-0.000885172	-0.0330399
39626	-2.00104	-37.907
39665	-2.00099	-33.3089
39704	-2.00089	-29.8485
39743	-2.001	-25.0442
39782	-2.00083	-21.4534
39821	-2.001	-18.7752
39860	-2.00083	-16.4121
39899	-2.00078	-14.4613
39938	-2.00081	-13.0505
39977	-2.00093	-12.0446
40016	-2.00087	-11.3131
40055	-2.00097	-10.6892
40094	-2.00083	-10.2896
40133	-2.00102	-9.9194
40172	-2.00095	-9.66571
40211	-2.00091	-9.44758
40250	-2.001	-9.21915
40289	-2.00091	-9.05235
40328	-2.001	-8.86955
40367	-2.00093	-8.79819
40406	-2.00091	-8.63757
40445	-2.00097	-8.47602
40484	-2.00099	-8.35469
40523	-0.000856188	5.521
40562	-0.000951559	1.77011
40601	-0.00100878	1.16948
40640	-0.00104693	0.926387
40679	-0.000913411	0.788018
40718	-0.000913411	0.696672
40757	-0.000932485	0.632364
40796	-0.000951559	0.584835
40835	-0.000913411	0.539145
40874	-0.000875262	0.502942
40913	-0.000970633	0.468166
40952	-0.000913411	0.448509
40991	-0.000970633	0.425414
41030	-0.000779892	0.406484
41069	-0.000932485	0.385489
41108	-0.00108508	0.371391
41147	-0.000894336	0.356096
41186	-0.00102786	0.341508
41225	-0.000913411	0.326886
41264	-0.000932485	0.31656
41303	-0.00100878	0.309753
41342	-0.00100878	0.297697
41381	-0.00100878	0.287031
41420	-0.000951559	0.277042
41459	-0.000798966	0.272783
41498	-0.000951559	0.264336
41537	-0.000932485	0.257098
41576	-0.00102786	0.249481
41615	-0.000970633	0.245848
41654	-0.000913411	0.240487
41693	-0.00100878	0.234033
41732	-0.000856188	0.227262
41771	-0.00100878	0.22285
41810	-0.000951559	0.221007
41849	-0.00102786	0.216123
41888	-0.000779892	0.211246
41927	-0.000894336	0.207111
41966	-0.00081804	0.207106
42005	-0.000894336	0.203563
42044	-0.000989707	0.200036
42083	-0.000989707	0.195509
42122	-0.000875262	0.194473
42161	-0.000989707	0.192198
42200	-0.00081804	0.189183
42239	-0.000932485	0.185457
42278	-0.00102786	0.183066
42317	-0.000932485	0.182432
42356	-0.000837114	0.179774
42395	-0.000970633	0.177085
42434	-0.00102786	0.17479
42473	-0.000913411	0.175502
42512	-0.000913411	0.173165
42551	-0.001066	0.171046
42590	-0.000837114	0.167727
42629	-0.000932485	0.168132
42668	-0.000970633	0.166689
42707	-0.000894336	0.165148
42746	-0.000779892	0.162888
42785	-0.000894336	0.161854
42824	-0.000894336	0.161985
42863	-0.000951559	0.159831
42902	-0.000970633	0.157497
42941	-0.000951559	0.155541
42980	-0.00081804	0.156623
43019	-0.00112323	0.155061
43058	-0.000875262	0.153671
43097	-0.000894336	0.151722
43136	-0.000894336	0.15248
43175	-0.000913411	0.151257
43214	2.99901	120.08
43253	2.99905	76.3116
43292	2.9989	55.837
43331	2.99905	45.9415
43370	2.99911	41.4127
43409	2.99896	39.0765
43448	2.99909	38.4338
43487	2.99905	38.1133
43526	2.9989	38.2281
43565	2.99903	39.0934
43604	2.99896	39.9749
43643	2.99901	40.9219
43682	2.9992	41.8166
43721	2.99899	42.6976
43760	2.99907	43.3456
43799	2.99919	44.044
43838	2.99922	44.4889
43877	2.99909	44.969
43916	2.99926	45.3595
43955	2.99917	45.7023
43994	2.99911	45.9557
44033	2.99915	46.0045
44072	2.99899	46.0453
44111	2.99911	46.0422
44150	2.99924	45.8807
44189	2.99909	45.6496
44228	2.99898	45.2308
44267	2.99898	44.7967
44306	2.99915	44.3469
44345	2.99901	43.9285
44384	2.99926	43.6594
44423	2.99915	43.0519
44462	2.99913	42.8144
44501	2.99905	42.628
44540	2.99899	42.3016
44579	2.99888	41.8969
44618	2.99928	41.3749
44657	2.99903	40.963
44696	2.99919	40.5216
44735	2.9989	40.1278
44774	2.99898	39.7046
44813	2.99898	39.3136
44852	2.99915	38.868
44891	2.99899	38.4584
44930	2.99898	37.9953
44969	2.99896	37.6266
45008	-0.000961469	-18.6564
45047	-0.000942394	-6.0064
45086	-0.000999616	-2.81362
45125	-0.000885172	-1.6993
45164	-0.000808876	-1.25002
45203	-0.00092332	-0.970514
45242	-0.000885172	-0.807366
45281	-0.000866098	-0.702365
45320	-0.000904246	-0.640509
45359	-0.000980543	-0.588386
45398	-0.000904246	-0.551154
45437	-0.000827949	-0.523241
45476	-0.000980543	-0.50485
45515	-0.000866098	-0.487037
45554	-0.000847024	-0.470338
45593	-0.000847024	-0.458934
45632	-0.000827949	-0.449002
45671	-0.00105684	-0.437654
45710	-0.000961469	-0.421806
45749	-0.00092332	-0.412586
45788	-0.00092332	-0.404603
45827	-0.000904246	-0.398453
45866	-0.000961469	-0.389034
45905	-0.000694431	-0.382799
45944	-0.00092332	-0.379316
45983	-0.000904246	-0.377366
46022	-0.000885172	-0.37011
46061	-0.000980543	-0.362088
46100	-0.000866098	-0.356871
46139	-0.000885172	-0.352965
46178	-0.000751653	-0.347328
46217	-0.000770727	-0.339322
46256	-0.000980543	-0.336185
46295	-0.000808876	-0.334133
46334	-0.000827949	-0.332866
46373	-0.000827949	-0.328204
46412	-0.000980543	-0.325179
46451	-0.00092332	-0.323356
46490	-0.000904246	-0.322441
46529	-0.00092332	-0.317492
46568	-0.000885172	-0.313052
46607	-0.00092332	-0.310608
46646	-0.000999616	-0.309262
46685	-0.000847024	-0.305311
46724	-0.000885172	-0.29824
46763	-0.000827949	-0.293752
46802	-0.000980543	-0.290869
46841	-0.00092332	-0.287082
46880	-0.000847024	-0.280002
46919	-0.000961469	-0.275077
46958	-0.000942394	-0.271857
46997	-0.000808876	-0.268473
47036	-0.000980543	-0.264064
47075	-0.000751653	-0.259936
47114	-0.000847024	-0.257158
47153	-0.000866098	-0.255506
47192	-0.000961469	-0.252858
47231	-0.000770727	-0.248652
47270	-0.00092332	-0.245118
47309	-0.000885172	-0.242821
47348	-0.000866098	-0.240849
47387	-0.000885172	-0.237106
47426	-0.000999616	-0.234602
47465	-0.000770727	-0.232833
47504	-0.000885172	-0.23171
47543	-0.00092332	-0.228639
47582	-0.000847024	-0.225962
47621	-0.000808876	-0.224354
47660	-0.000827949	-0.22363
47699	-0.000942394	-0.221169
47738	-0.000770727	-0.217553
47777	-0.000827949	-0.215269
47816	-0.000847024	-0.213877
47855	-0.000866098	-0.212061
47894	-0.000827949	-0.208464
47933	-0.000866098	-0.206289
47972	-0.000866098	-0.204766
48011	-0.000885172	-0.203716
48050	-0.000942394	-0.200735
48089	-0.000866098	-0.19844
48128	-0.000942394	-0.196902
48167	-0.000675357	-0.195938
48206	-0.000847024	-0.194069
48245	-0.000713505	-0.191069
48284	-0.000751653	-0.189618
48323	-0.000885172	-0.18856
48362	-0.000942394	-0.186522
48401	-0.000847024	-0.184273
48440	-0.000942394	-0.182182
48479	-0.000866098	-0.181114
48518	-0.000904246	-0.179869
48557	-0.00105684	-0.177723
48596	-0.000827949	-0.175499
48635	-0.000751653	-0.173958
48674	-0.000961469	-0.172778
48713	-0.000904246	-0.171128
48752	-0.00092332	-0.169066
48791	-0.000732579	-0.168089
48830	-0.000789802	-0.167434
48869	-0.000885172	-0.166282
48908	-0.000847024	-0.164211
48947	-0.000789802	-0.162583
48986	-0.000885172	-0.161223
49025	-0.000942394	-0.159981
49064	-0.00092332	-0.157727
49103	-0.00103776	-0.155608
49142	-0.000885172	-0.154257
49181	-0.000827949	-0.15341
49220	-0.000942394	-0.151543
49259	-0.000847024	-0.149516
49298	-0.000904246	-0.148746
49337	-0.000732579	-0.14828
49376	-0.000808876	-0.147251
49415	-0.000866098	-0.145611
49454	-0.000808876	-0.144095
49493	-0.00092332	-0.142873
49532	-0.000808876	-0.141634
49571	-0.00092332	-0.139587
49610	-0.000961469	-0.137653
49649	-0.000827949	-0.136402
49688	-0.000751653	-0.135698
49727	-0.00092332	-0.133942
49766	-0.000866098	-0.132259
49805	-0.000789802	-0.131784
49844	-0.000789802	-0.131455
49883	-0.000885172	-0.130603
49922	-0.000904246	-0.129386
49961	-0.000847024	-0.128237
50000	-0.000866098	-0.127389
50039	-0.000751653	-0.126456
50078	-0.000866098	-0.124814
50117	-0.000827949	-0.123319
50156	-0.000808876	-0.122277
50195	-0.000904246	-0.12203
50234	-0.000866098	-0.121263
50273	-0.000808876	-0.120092
50312	-0.000808876	-0.118901
50351	-0.000961469	-0.118296
50390	-0.000866098	-0.117029
50429	-0.000904246	-0.115567
50468	-0.000827949	-0.114291
50507	-0.000808876	-0.113565
50546	-0.000751653	-0.113011
50585	-0.000866098	-0.111677
50624	-0.00109499	-0.11061
50663	-0.000904246	-0.109953
50702	-0.000770727	-0.109705
50741	-0.000942394	-0.108989
50780	-0.00092332	-0.107837
50819	-0.000866098	-0.106929
50858	-0.000827949	-0.106094
50897	-0.000847024	-0.104989
50936	-0.000942394	-0.103416
50975	-0.000942394	-0.102391
51014	-0.000789802	-0.1014
51053	-0.000827949	-0.100536
51092	-0.000904246	-0.0995289
51131	-0.000827949	-0.0986128
51170	-0.00092332	-0.0980575
51209	-0.000847024	-0.0976708
51248	-0.000808876	-0.0967649
51287	-0.000751653	-0.0954141
51326	-0.000808876	-0.0944713
51365	-0.000961469	-0.0939367
51404	-0.000751653	-0.0930726
51443	-0.00107591	-0.0920568
51482	-0.000942394	-0.0910366
51521	-0.000808876	-0.0900833
51560	-0.000904246	-0.0889755
51599	-0.000904246	-0.0877985
51638	-0.000942394	-0.0866684
51677	-0.000904246	-0.0857726
51716	-0.000827949	-0.0848723
51755	-0.000847024	-0.0838097
51794	-0.000866098	-0.0827343
51833	-0.000866098	-0.0820273
51872	-0.00092332	-0.0814891
51911	-0.000732579	-0.0804379
51950	-0.000751653	-0.0791529
51989	-0.000789802	-0.0778805
52028	-0.000827949	-0.0771405
52067	-0.00092332	-0.0762348
52106	-0.000904246	-0.0751561
52145	-0.000847024	-0.0745331
52184	-0.000885172	-0.0742264
52223	-0.000885172	-0.0738901
52262	-0.00092332	-0.0731725
52301	-0.000789802	-0.072548
52340	-0.000789802	-0.0724668
52379	-0.000885172	-0.072743
52418	-0.000904246	-0.0723375
52457	-0.000789802	-0.071632
52496	-0.000904246	-0.0709502
52535	-0.000866098	-0.0701659
52574	-0.000827949	-0.0693579
52613	-0.000999616	-0.0686424
52652	-0.000789802	-0.0680641
52691	-0.000789802	-0.0677042
52730	-0.000866098	-0.0675489
52769	-0.000866098	-0.0671682
52808	-0.000885172	-0.0665103
52847	-0.000904246	-0.0659076
52886	-0.000866098	-0.0655912
52925	-0.000827949	-0.0647991
52964	-0.000808876	-0.0640979
53003	-0.000827949	-0.0632461
53042	-0.000847024	-0.0623334
53081	-0.000999616	-0.0610688
53120	-0.000827949	-0.0602499
53159	-0.000904246	-0.0597433
53198	-0.000789802	-0.0595436
53237	-0.000866098	-0.0590892
53276	-0.00092332	-0.0583224
53315	-0.000847024	-0.0578002
53354	-0.000866098	-0.0573275
53393	-0.000866098	-0.0570482
53432	-0.000789802	-0.0564183
53471	-0.000751653	-0.0558773
53510	-0.000789802	-0.055124
53549	-0.000999616	-0.0544536
53588	-0.000961469	-0.053527
53627	-0.000885172	-0.0528019
53666	-0.000885172	-0.0521496
53705	-0.000885172	-0.0518014
53744	-0.000961469	-0.0514987
53783	-0.000904246	-0.0509413
53822	-0.00092332	-0.0501982
53861	-0.000961469	-0.049847
53900	-0.000789802	-0.0495389
53939	-0.000961469	-0.0487505
53978	-0.00092332	-0.0478895
54017	-2.00095	-29.3363
54056	-2.00108	-26.2808
54095	-2.00095	-27.4167
54134	-2.00097	-27.8131
54173	-2.00091	-27.285
54212	-2.00085	-25.2988
54251	-2.00095	-22.7986
54290	-2.00097	-20.5548
54329	-2.00085	-18.4585
54368	-2.00089	-16.7936
54407	-2.00097	-15.3338
54446	-2.001	-14.24
54485	-2.00114	-13.4246
54524	-2.00093	-12.8311
54563	-2.00097	-12.3634
54602	-2.00072	-12.0041
54641	-2.00097	-11.6523
54680	-2.00079	-11.5746
54719	-2.00085	-11.3744
54758	-2.00097	-11.6669
54797	-2.00089	-11.3666
54836	-2.00087	-10.9042
54875	-2.001	-10.892
54914	-0.000837114	11.8671
54953	-0.000894336	2.37347
54992	-0.000970633	1.35392
55031	-0.00102786	1.02108
55070	-0.000989707	0.848868
55109	-0.000913411	0.743105
55148	-0.000837114	0.659848
55187	-0.000894336	0.599372
55226	-0.000970633	0.551089
55265	-0.000875262	0.51573
55304	-0.000932485	0.48386
55343	-0.000951559	0.455568
55382	-0.000913411	0.430168
55421	-0.000970633	0.407082
55460	-0.000913411	0.391974
55499	-0.000970633	0.373988
55538	-0.000970633	0.356965
55577	-0.000932485	0.340452
55616	-0.000970633	0.330594
55655	-0.000932485	0.317994
55694	-0.000989707	0.306167
55733	-0.000913411	0.29387
55772	-0.00100878	0.286869
55811	-0.000798966	0.280359
55850	-0.000894336	0.270982
55889	-0.00100878	0.261514
55928	-0.000932485	0.252693
55967	-0.00102786	0.247342
56006	-0.000913411	0.240252
56045	-0.001066	0.235416
56084	-0.000894336	0.229062
56123	-0.000932485	0.225597
56162	-0.00100878	0.220258
56201	-0.000741744	0.216456
56240	-0.000932485	0.211954
56279	-0.000913411	0.20898
56318	-0.000970633	0.205777
56357	-0.000779892	0.201742
56396	-0.000837114	0.196868
56435	-0.000970633	0.19236
56474	-0.00102786	0.191873
56513	-0.000932485	0.189584
56552	-0.00100878	0.186319
56591	-0.00100878	0.182418
56630	-0.000951559	0.181947
56669	-0.000951559	0.17931
56708	-0.000970633	0.176728
56747	-0.00100878	0.173001
56786	-0.000875262	0.171579
56825	-0.000856188	0.170137
56864	-0.000989707	0.167747
56903	-0.00102786	0.165123
56942	-0.000837114	0.163181
56981	-0.001066	0.163212
57020	-0.000970633	0.161521
57059	-0.000970633	0.15931
57098	-0.000856188	0.156548
57137	-0.000894336	0.156338
57176	-0.00110415	0.154778
57215	-0.000894336	0.153238
57254	-0.000989707	0.150692
57293	-0.000970633	0.150194
57332	-0.000970633	0.149197
57371	-0.000913411	0.147715
57410	-0.000856188	0.145573
57449	-0.00102786	0.14421
57488	-0.000932485	0.14432
57527	-0.000989707	0.142343
57566	-0.000837114	0.140205
57600	-0.000951559	0.139474