File: Data_12_Experiment/CA_001_C01.txt
time/s	Ewe/V	<I>/mA
1	1.4994	348.683
40.0016	1.49935	41.0149
79.0016	1.49927	34.0952
118.002	1.49919	28.658
157.002	1.49919	24.8422
196.002	1.49925	22.2727
235.002	1.49923	20.3107
274.002	1.49919	18.8928
313.002	1.49921	17.7167
352.002	1.49927	16.7046
391.002	1.49918	15.8514
430.002	1.49942	15.0859
469.002	1.49931	14.3951
508.002	1.49933	13.8124
547.002	1.49916	13.2828
586.002	1.49939	12.7834
625.002	1.49937	12.3641
664.002	1.49944	11.9725
703.002	1.49931	11.6479
742.002	1.49918	11.3162
781.002	1.49944	11.0822
820.002	1.49929	10.8331
859.002	1.49933	10.5605
898.002	1.49935	10.3598
937.002	1.49935	10.1531
976.002	1.49931	10.045
1015	1.49925	9.88866
1054	1.49929	9.75168
1093	1.49937	9.55694
1132	1.49933	9.48122
1171	1.49927	9.3122
1210	1.49933	9.125
1249	1.49939	8.96824
1288	1.4994	8.85272
1327	1.49931	8.688
1366	1.49942	8.59035
1405	1.49918	8.42438
1444	1.49935	8.28826
1483	1.49937	8.11862
1522	1.49914	7.99988
1561	1.49935	7.92333
1600	1.49929	7.71171
1639	1.49937	7.58103
1678	1.49939	7.40207
1717	1.49935	7.27321
1756	1.49916	7.12302
1795	1.49933	7.06663
1833.95	-0.00100249	-0.767058
1872.95	-0.00104063	0.128587
1911.95	-0.000964338	0.340219
1950.95	-0.000964338	0.398639
1989.95	-0.00092619	0.376494
2028.95	-0.00092619	0.403329
2067.95	-0.00107878	0.409573
2106.95	-0.000983412	0.435259
2145.95	-0.00107878	0.380652
2184.95	-0.000983412	0.340331
2223.95	-0.00109786	0.324658
2262.95	-0.00107878	0.32013
2301.95	-0.000983412	0.312114
2340.95	-0.00102156	0.255238
2379.95	-0.00107878	0.229695
2418.95	-0.00105971	0.211615
2457.95	-0.000964338	0.225528
2496.95	-0.00109786	0.187016
2535.95	-0.00113601	0.161424
2574.95	-0.00115508	0.145896
2613.95	-0.000983412	0.157669
2652.95	-0.00115508	0.146349
2691.95	-0.00109786	0.120609
2730.95	-0.00102156	0.109272
2769.95	-0.00104063	0.111072
2808.95	-0.000849894	0.120548
2847.95	-0.00111693	0.0994658
2886.95	-0.00107878	0.0871388
2925.95	-0.00100249	0.0812775
2964.95	-0.00104063	0.0993501
3003.95	-0.000983412	0.0850222
3042.95	-0.000983412	0.0735161
3081.95	-0.000964338	0.0667365
3120.95	-0.00109786	0.0806469
3159.95	-0.00104063	0.078762
3198.95	-0.00105971	0.0645663
3237.95	-0.00100249	0.0587805
3276.95	-0.00104063	0.0642594
3315.95	-0.00107878	0.0761226
3354.95	-0.000964338	0.0619964
3393.95	-0.000964338	0.0550356
3432.95	-0.000907116	0.0531297
3471.95	-0.00083082	0.0698168
3510.95	-0.000983412	0.0597537
3549.95	-0.000945264	0.0510898
3588.95	-0.00107878	0.0469611
3627.95	-0.000888042	0.0601756
3666.95	-0.00104063	0.0595008
3705.95	-0.000964338	0.048844
3744.95	-0.00100249	0.0443934
3783.95	-0.00104063	0.0496756
3822.95	-0.00105971	0.059264
3861.95	-0.00104063	0.0486103
3900.95	-0.00105971	0.0435662
3939.95	-0.000945264	0.0429464
3978.95	-0.00115508	0.0570796
4017.95	-0.00105971	0.0487725
4056.95	-0.000964338	0.0420941
4095.95	-0.00100249	0.0388171
4134.95	-0.00109786	0.0507952
4173.95	-0.00100249	0.0500333
4212.95	-0.00107878	0.041667
4251.95	-0.00111693	0.0384769
4290.95	-0.000907116	0.0438617
4329.95	-0.00100249	0.0515384
4368.95	-0.00119323	0.0428704
4407.95	-0.00105971	0.0383926
4446.95	-0.00111693	0.0376458
4485.95	-0.000983412	0.0503905
4524.95	-0.000945264	0.0434364
4563.95	-0.00107878	0.0378066
4602.95	-0.000945264	0.0347814
4641.95	-0.00102156	0.0459957
4680.95	-0.00092619	0.0448761
4719.95	-0.00102156	0.0377716
4758.95	-0.00102156	0.0350755
4797.95	-0.00092619	0.0405674
4836.95	-0.00119323	0.0468104
4875.95	-0.00107878	0.0385963
4914.95	-0.00111693	0.0349168
4953.95	-0.00100249	0.0348173
4992.95	-0.00107878	0.0460207
5031.95	-0.000983412	0.0396969
5070.95	-0.000945264	0.0345718
5109.95	-0.000964338	0.0324625
5148.95	-0.00104063	0.0424282
5187.95	-0.000964338	0.0413756
5226.95	-0.00113601	0.0360026
5265.95	-0.00105971	0.0334279
5304.95	-0.00105971	0.0382284
5343.95	-0.00107878	0.0431773
5382.95	-0.00109786	0.0363978
5421.95	-0.00113601	0.0331783
5460.95	-0.000983412	0.0334391
5499.95	-0.00113601	0.0429821
5538.95	-0.00115508	0.0374141
5577.95	-0.00092619	0.0334542
5616.95	-0.00113601	0.0316565
5655.95	-0.00113601	0.041214
5694.95	-0.00113601	0.0396061
5733.95	-0.000945264	0.034351
5772.95	-0.00102156	0.0319099
5811.95	-0.00102156	0.0364836
5850.95	-0.00107878	0.0406483
5889.95	-0.00107878	0.0347049
5928.95	-0.00100249	0.0320796
5967.95	-0.00102156	0.0326127
6006.95	-0.000964338	0.0412475
6045.95	-0.00100249	0.036464
6084.95	-0.00115508	0.0329816
6123.95	-0.000945264	0.0312091
6162.95	-0.00111693	0.0391362
6201.95	-0.00105971	0.037401
6240.95	-0.00104063	0.0329785
6279.95	-0.00115508	0.0309508
6318.95	-0.000945264	0.0357383
6357.95	-0.00117415	0.0389517
6396.95	-0.00105971	0.0341396
6435.95	-0.000983412	0.0320242
6474.95	-0.00100249	0.0326416
6513.95	-0.000983412	0.0396083
6552.95	-0.00107878	0.035169
6591.95	-0.00100249	0.0323681
6630.95	-0.000907116	0.0304493
6669.95	-0.00111693	0.0376924
6708.95	-0.00100249	0.0361869
6747.95	-0.00104063	0.0323721
6786.95	-0.00100249	0.0306391
6825.95	-0.00107878	0.0352901
6864.95	-0.00115508	0.0374491
6903.95	-0.00107878	0.0334708
6942.95	-0.00111693	0.0312625
6981.95	-0.000964338	0.0318768
7020.95	-0.00102156	0.0380219
7059.95	-0.00117415	0.0338678
7098.95	-0.000964338	0.0316957
7137.95	-0.00109786	0.0305783
7176.95	-0.00102156	0.0370224
7215.95	-0.00102156	0.0352726
7254.95	-0.000983412	0.0319803
7293.95	-0.00109786	0.030315
7332.95	-0.000945264	0.0345516
7371.95	-0.000907116	0.0361219
7410.95	-0.000849894	0.0325006
7449.95	-0.00104063	0.0309167
7488.95	-0.00125045	0.0316644
7527.95	-0.00102156	0.0370517
7566.95	-0.00107878	0.0335388
7605.95	-0.00092619	0.0315774
7644.95	-0.00102156	0.0302089
7683.95	-0.000964338	0.0362716
7722.95	-0.00109786	0.0344478
7761.95	-0.000945264	0.0316111
7800.95	-0.000964338	0.0298726
7839.95	-0.000907116	0.0341058
7878.95	-0.00115508	0.0352522
7917.95	-0.00113601	0.0320514
7956.95	-0.0012123	0.0305887
7995.95	-0.000945264	0.0314813
8034.95	-0.00105971	0.035867
8073.95	-0.00100249	0.0326413
8112.95	-0.000907116	0.0309615
8151.95	-0.00105971	0.0299643
8190.95	-0.00102156	0.0350973
8229.95	-0.00107878	0.0336438
8268.95	-0.00092619	0.0314442
8307.95	-0.00100249	0.0298076
8346.95	-0.00100249	0.0335419
8385.95	-0.00113601	0.0345535
8424.95	-0.00104063	0.0315838
8463.95	-0.00109786	0.0302873
8502.95	-0.00105971	0.0314118
8541.95	-0.00107878	0.034887
8580.95	-0.00105971	0.032216
8619.95	-0.00100249	0.0305974
8658.95	-0.00102156	0.0300577
8697.95	-0.00117415	0.0347081
8736.95	-0.00107878	0.0330142
8775.95	-0.00107878	0.0312193
8814.95	-0.000983412	0.0297026
8853.95	-0.00117415	0.0333097
8892.95	-0.00104063	0.0339717
8931.95	-0.000945264	0.031189
8970.95	-0.00105971	0.0301885
9009.95	-0.00105971	0.0313853
9048.95	-0.00105971	0.03392
9087.95	-0.00111693	0.032022
9126.95	-0.00104063	0.0306132
9165.95	-0.000983412	0.0300669
9204.95	-0.00107878	0.0341701
9243.95	-0.00109786	0.0327677
9282.95	-0.00123138	0.0308935
9321.95	-0.000983412	0.0298484
9360.95	-0.00104063	0.0327164
9399.95	-0.00105971	0.0332013
9438.95	-0.000983412	0.0313517
9477.95	-0.000983412	0.0301116
9516.95	-0.00117415	0.0313172
9555.95	-0.00105971	0.0339442
9594.95	-0.00109786	0.0314921
9633.95	-0.00100249	0.0303135
9672.95	-0.00107878	0.0300312
9711.95	-0.00092619	0.033498
9750.95	-0.000868968	0.0321034
9789.95	-0.00105971	0.0306673
9828.95	-0.00104063	0.0298264
9867.95	-0.00092619	0.0328424
9906.95	-0.00109786	0.0325896
9945.95	-0.00105971	0.0308737
9984.95	-0.000983412	0.0299778
10024	-0.000888042	0.0312035
10063	-0.00092619	0.0331658
10102	-0.000868968	0.0313345
10141	-0.00104063	0.0299678
10180	-0.00102156	0.0299947
10219	-0.00111693	0.0331655
10258	-0.00104063	0.0315998
10297	-0.00111693	0.0300308
10336	-0.00092619	0.0293542
10375	-0.00109786	0.0320511
10414	-0.00109786	0.0322194
10453	-0.00113601	0.0307947
10492	-0.00109786	0.0297103
10531	-0.00111693	0.0311359
10570	-0.00109786	0.0326755
10609	-0.000983412	0.0309531
10648	-0.000907116	0.029809
10687	-0.00092619	0.0297042
10726	-0.00105971	0.0328922
10765	-0.00113601	0.0313754
10804	-2.00083	-207.418
10843	-2.00073	-66.9851
10882	-2.00086	-39.4293
10921	-2.00094	-25.6161
10960	-2.0009	-18.3534
10999	-2.00092	-14.3625
11038	-2.00088	-11.6606
11077	-2.00079	-9.9297
11116	-2.00083	-8.74797
11155	-2.00079	-7.93896
11194	-2.00073	-7.25487
11233	-2.00069	-6.75568
11272	-2.00083	-6.5245
11311	-2.00092	-6.05647
11350	-2.00075	-5.803
11389	-2.001	-5.60566
11428	-2.00073	-5.41973
11467	-2.00086	-5.27599
11506	-2.00088	-5.15122
11545	-2.00086	-5.11001
11584	-2.00088	-4.95065
11623	-2.00083	-4.85949
11662	-2.00081	-5.09226
11701	-0.00111693	260.969
11740	-0.000907116	3.95432
11779	-0.000964338	2.20211
11818	-0.00104063	1.63547
11857	-0.000945264	1.38109
11896	-0.00092619	1.24011
11935	-0.00102156	1.13605
11974	-0.00104063	1.06622
12013	-0.000983412	1.00828
12052	-0.000964338	0.967555
12091	-0.00104063	0.925746
12130	-0.00102156	0.889728
12169	-0.00109786	0.860126
12208	-0.00102156	0.83766
12247	-0.00105971	0.816585
12286	-0.00107878	0.78957
12325	-0.00104063	0.7714
12364	-0.000983412	0.753923
12403	-0.00100249	0.742878
12442	-0.00104063	0.723176
12481	-0.000945264	0.707109
12520	-0.00111693	0.691781
12559	-0.00104063	0.683284
12598	-0.00100249	0.670196
12637	-0.00102156	0.65475
12676	-0.00100249	0.641686
12715	-0.00102156	0.6319
12754	-0.00104063	0.623053
12793	-0.00113601	0.608791
12832	-0.000907116	0.596938
12871	-0.00113601	0.585463
12910	-0.00105971	0.578897
12949	-0.0012123	0.566362
12988	-0.00104063	0.554351
13027	-0.00104063	0.543852
13066	-0.00123138	0.537704
13105	-0.00107878	0.52777
13144	-0.000945264	0.516784
13183	-0.00113601	0.507261
13222	-0.00109786	0.498837
13261	-0.00100249	0.49164
13300	-0.00107878	0.479151
13339	-0.00102156	0.469496
13378	-0.00100249	0.460625
13417	-0.00107878	0.455088
13456	-0.00105971	0.445053
13495	-0.00092619	0.435135
13534	-0.00102156	0.426299
13573	-0.00111693	0.420814
13612	-0.00105971	0.411761
13651	-0.000983412	0.402785
13690	-0.00100249	0.394756
13729	-0.000983412	0.388589
13768	-0.00119323	0.382906
13807	-0.000964338	0.374284
13846	-0.00102156	0.367707
13885	-0.00092619	0.361262
13924	-0.00092619	0.356593
13963	-0.00107878	0.348897
14002	-0.00100249	0.342437
14041	-0.000983412	0.336348
14080	-0.000983412	0.332824
14119	-0.00102156	0.326734
14158	-0.00104063	0.320868
14197	-0.00102156	0.314956
14236	-0.00104063	0.310948
14275	-0.000964338	0.307123
14314	-0.00107878	0.301611
14353	-0.000983412	0.296596
14392	-0.00092619	0.292456
14431	1.4994	47.9822
14470	1.49912	33.0276
14509	1.49929	26.2133
14548	1.4994	21.6896
14587	1.49931	18.5009
14626	1.49921	16.1451
14665	1.49925	14.3751
14704	1.4994	12.973
14743	1.49933	11.8031
14782	1.49931	10.8473
14821	1.49921	10.0165
14860	1.49923	9.29143
14899	1.49927	8.64956
14938	1.49933	8.06896
14977	1.49942	7.55938
15016	1.49933	7.09414
15055	1.49935	6.6625
15094	1.4994	6.26867
15133	1.49923	5.9405
15172	1.49933	5.63064
15211	1.49923	5.34329
15250	1.49937	5.07373
15289	1.49929	4.84093
15328	1.49925	4.60733
15367	1.49919	4.40332
15406	1.49929	4.22186
15445	1.49935	4.03987
15484	1.49929	3.89271
15523	1.49927	3.74058
15562	1.4994	3.61345
15601	1.49923	3.46837
15640	1.49931	3.36415
15679	1.49931	3.25739
15718	1.49931	3.16171
15757	1.49918	3.05895
15796	1.49939	2.97818
15835	1.49933	2.90444
15874	1.49927	2.8273
15913	1.49929	2.75698
15952	1.49937	2.68075
15991	1.49952	2.63226
16030	1.49925	2.57484
16069	1.49939	2.52082
16108	1.49944	2.45406
16147	1.49937	2.41974
16186	1.49937	2.37577
16225	-0.00104063	-1.08309
16264	-0.00100249	-0.114643
16303	-0.00104063	0.0575431
16342	-0.00113601	0.106235
16381	-0.000983412	0.120645
16420	-0.00102156	0.122028
16459	-0.00115508	0.124411
16498	-0.00104063	0.115434
16537	-0.00105971	0.107155
16576	-0.00104063	0.102
16615	-0.00100249	0.101997
16654	-0.00115508	0.0967208
16693	-0.00105971	0.0906528
16732	-0.00105971	0.08612
16771	-0.00107878	0.086743
16810	-0.00115508	0.0860981
16849	-0.00111693	0.0809737
16888	-0.00105971	0.0776759
16927	-0.000964338	0.0766683
16966	-0.00119323	0.0786858
17005	-0.000964338	0.0753843
17044	-0.00102156	0.0726626
17083	-0.000945264	0.0704847
17122	-0.00104063	0.0730572
17161	-0.000888042	0.0709676
17200	-0.00107878	0.0679941
17239	-0.00105971	0.0654754
17278	-0.00100249	0.0674103
17317	-0.000849894	0.067662
17356	-0.00109786	0.0646576
17395	-0.000964338	0.0626649
17434	-0.00105971	0.062615
17473	-0.00100249	0.0643908
17512	-0.00107878	0.0621499
17551	-0.00105971	0.0600009
17590	-0.00102156	0.0587356
17629	-0.000964338	0.061598
17668	-0.00102156	0.0599267
17707	-0.000964338	0.0575868
17746	-0.000964338	0.0560624
17785	-0.00105971	0.0580605
17824	-0.00119323	0.057884
17863	-0.000983412	0.0558466
17902	-0.00107878	0.0539592
17941	-0.000983412	0.0540426
17980	-0.00104063	0.0557483
18019	-0.00107878	0.0539558
18058	-0.00102156	0.0523773
18097	-0.00102156	0.0510602
18136	-0.00100249	0.0537613
18175	-0.00100249	0.0529383
18214	-0.00111693	0.0507002
18253	-0.000964338	0.0486394
18292	-0.00109786	0.0506477
18331	-0.00104063	0.0508301
18370	-0.00109786	0.0487091
18409	-0.00100249	0.0475418
18448	-0.00104063	0.0478866
18487	-0.000964338	0.0497714
18526	-0.00100249	0.0475429
18565	-0.00100249	0.045908
18604	-0.00113601	0.0450294
18643	-0.00102156	0.0471606
18682	-0.00105971	0.0462988
18721	-0.00113601	0.0446095
18760	-0.000945264	0.0437252
18799	-0.00105971	0.045604
18838	-0.000983412	0.0455066
18877	-0.000945264	0.0436442
18916	-0.000983412	0.042522
18955	-0.00100249	0.0428065
18994	-0.00104063	0.0440225
19033	-0.00105971	0.0425768
19072	-0.00102156	0.0412527
19111	-0.00119323	0.0405738
19150	-0.00092619	0.0428086
19189	-0.00092619	0.0420134
19228	-0.000945264	0.0406011
19267	-0.00102156	0.0395443
19306	-0.00100249	0.0411565
19345	-0.00107878	0.041483
19384	-0.000907116	0.039863
19423	-0.00102156	0.0386862
19462	-0.00104063	0.0393775
19501	-0.00100249	0.0403839
19540	-0.00105971	0.0389813
19579	-0.000964338	0.0378228
19618	-0.00111693	0.037691
19657	-0.00107878	0.0392422
19696	-0.00111693	0.0384992
19735	-0.00104063	0.0374177
19774	-0.00117415	0.0364169
19813	-0.00102156	0.0380324
19852	-0.00105971	0.037804
19891	-0.000945264	0.0367803
19930	-0.00102156	0.0358534
19969	-0.000907116	0.03671
20008	-0.000964338	0.0378263
20047	-0.00107878	0.0363785
20086	-0.00104063	0.0353144
20125	-0.000945264	0.0349461
20164	-0.00104063	0.0365016
20203	-0.00113601	0.0357761
20242	-0.000945264	0.0348748
20281	-0.000964338	0.0341346
20320	-0.00105971	0.0358353
20359	-0.00100249	0.0356518
20398	-0.00100249	0.0345427
20437	-0.00105971	0.0337586
20476	-0.000868968	0.0344377
20515	-0.00100249	0.0351088
20554	-0.00100249	0.0339928
20593	-0.00107878	0.0330399
20632	-0.00113601	0.0330622
20671	-0.00105971	0.0342926
20710	-0.00117415	0.0337589
20749	-0.00109786	0.03286
20788	-0.00104063	0.0322762
20827	-0.00113601	0.0336927
20866	-0.000983412	0.0334756
20905	-0.00104063	0.032634
20944	-0.00111693	0.0318289
20983	-0.00105971	0.0323612
21022	-0.000964338	0.0331912
21061	-0.00102156	0.032261
21100	-0.000964338	0.0314609
21139	-0.00092619	0.0315467
21178	-0.00102156	0.0325523
21217	-0.00092619	0.0317908
21256	-0.000849894	0.0312476
21295	-0.00111693	0.0305836
21334	-0.00113601	0.0316319
21373	-0.000964338	0.0317495
21412	-0.000983412	0.0309042
21451	-0.00113601	0.0302401
21490	-0.00105971	0.0310392
21529	-0.00105971	0.0312291
21568	-0.00109786	0.0308124
21607	-0.00102156	0.0300745
21646	-0.00100249	0.0297225
21685	-0.00102156	0.0312486
21724	-0.00104063	0.0304646
21763	-0.00111693	0.0299169
21802	-0.000907116	0.0295443
21841	-0.00102156	0.0304499
21880	-0.00109786	0.0303964
21919	-0.00092619	0.0297332
21958	-0.000868968	0.0289437
21997	-0.00113601	0.0296166
22036	-0.00104063	0.0298122
22075	-0.00102156	0.0292914
22114	-0.00105971	0.0294669
22153	-0.00105971	0.0292549
22192	-0.00100249	0.0296414
22231	-0.00111693	0.0291914
22270	-0.000983412	0.0284746
22309	-0.00115508	0.0279822
22348	-0.000983412	0.0290565
22387	-0.000945264	0.0288827
22426	-0.00115508	0.0284012
22465	-0.00092619	0.0282242
22504	-0.00113601	0.0290607
22543	-0.00109786	0.028837
22582	-0.00104063	0.028109
22621	-0.00109786	0.027711
22660	-0.00107878	0.027878
22699	-0.00111693	0.0287112
22738	-0.00111693	0.0280754
22777	-0.00092619	0.0275109
22816	-0.000964338	0.0274017
22855	-0.00111693	0.0282702
22894	-0.000907116	0.0281271
22933	-0.00107878	0.0277413
22972	-0.000964338	0.0269178
23011	-0.00104063	0.0275316
23050	-0.00107878	0.0277648
23089	-0.00102156	0.0271768
23128	-0.000964338	0.0268881
23167	-0.00105971	0.027005
23206	-0.000945264	0.0274937
23245	-0.00111693	0.0271526
23284	-0.000964338	0.0270621
23323	-0.00104063	0.0267947
23362	-0.000907116	0.0272951
23401	-0.00104063	0.0271882
23440	-0.00107878	0.0266257
23479	-0.00107878	0.0263434
23518	-0.000964338	0.026923
23557	-0.00105971	0.0267823
23596	-0.000983412	0.0263429
23635	-0.00102156	0.025912
23674	-0.00100249	0.0265836
23713	-0.00117415	0.0268809
23752	-0.000945264	0.0260877
23791	-0.000983412	0.0259625
23830	-0.00102156	0.0256503
23869	-0.00104063	0.0263737
23908	-0.00092619	0.0262345
23947	-0.00111693	0.0256678
23986	-0.00100249	0.0253248
24025	-0.00104063	0.0259345
24064	-0.000945264	0.0258746
24103	-0.00102156	0.0254728
24142	-0.00109786	0.025437
24181	-0.00100249	0.0252708
24220	-0.000964338	0.0255653
24259	-0.00104063	0.0254169
24298	-0.00107878	0.0250279
24337	-0.00109786	0.0251385
24376	-0.000945264	0.0259119
24415	-0.000945264	0.025579
24454	-0.00083082	0.0249747
24493	-0.000983412	0.0249345
24532	-0.00113601	0.0254351
24571	-0.00115508	0.0253229
24610	-0.00102156	0.0249317
24649	-0.00107878	0.0248253
24688	-0.000945264	0.0252487
24727	-0.00102156	0.0253064
24766	-0.00102156	0.0251519
24805	-0.00109786	0.0248953
24844	-0.000868968	0.0245968
24883	-0.000907116	0.0250735
24922	-0.00104063	0.0248276
24961	-0.00105971	0.0243525
25000	-0.00109786	0.024281
25039	-0.00109786	0.0247757
25078	-0.00100249	0.0246089
25117	-0.00100249	0.0243965
25156	-0.000964338	0.0241553
25195	-0.000945264	0.0244521
25234	-2.00083	-48.1414
25273	-2.00075	-24.5293
25312	-2.00073	-15.8938
25351	-2.00098	-11.7212
25390	-2.00083	-9.42882
25429	-2.00088	-7.83552
25468	-2.00079	-6.81153
25507	-2.0009	-6.07788
25546	-2.00088	-5.56773
25585	-2.00085	-5.10667
25624	-2.00081	-4.77487
25663	-2.00081	-4.62443
25702	-2.00081	-4.29409
25741	-2.00085	-4.09734
25780	-2.00079	-4.03083
25819	-2.00073	-3.79194
25858	-2.00081	-3.65539
25897	-2.00075	-3.54505
25936	-2.00086	-3.45301
25975	-2.00083	-3.364
26014	-2.00092	-3.28769
26053	-2.00085	-3.34847
26092	-2.00094	-3.19256
26131	-0.000983412	3.75468
26170	-0.000888042	1.85354
26209	-0.000945264	1.31485
26248	-0.000945264	1.05895
26287	-0.00104063	0.913342
26326	-0.000964338	0.8201
26365	-0.00125045	0.754453
26404	-0.000983412	0.70496
26443	-0.00105971	0.661624
26482	-0.00102156	0.626798
26521	-0.00100249	0.597979
26560	-0.000945264	0.576706
26599	-0.00107878	0.551604
26638	-0.000983412	0.530852
26677	-0.00111693	0.512238
26716	-0.00102156	0.497775
26755	-0.00100249	0.4807
26794	-0.000964338	0.465813
26833	-0.00115508	0.452035
26872	-0.00111693	0.440576
26911	-0.00100249	0.43201
26950	-0.00104063	0.419874
26989	-0.00100249	0.409031
27028	-0.00119323	0.399215
27067	-0.00100249	0.392945
27106	-0.000983412	0.383484
27145	-0.00107878	0.374364
27184	-0.0012123	0.36626
27223	-0.00115508	0.360531
27262	-0.00104063	0.353368
27301	-0.00102156	0.345282
27340	-0.00100249	0.337729
27379	-0.00105971	0.332102
27418	-0.000964338	0.327237
27457	-0.00102156	0.320066
27496	-0.00100249	0.313656
27535	-0.00111693	0.307494
27574	-0.00107878	0.303837
27613	-0.00107878	0.29771
27652	-0.00111693	0.29194
27691	-0.000945264	0.286485
27730	-0.00092619	0.282833
27769	-0.00102156	0.278222
27808	-0.000945264	0.272668
27847	-0.000983412	0.267838
27886	-0.00102156	0.263826
27925	-0.000945264	0.260562
27964	-0.000983412	0.25554
28003	-0.00105971	0.250881
28042	-0.00115508	0.246847
28081	-0.00102156	0.243747
28120	-0.000907116	0.239073
28159	-0.00104063	0.234831
28198	-0.000945264	0.23064
28237	-0.000907116	0.227677
28276	-0.00104063	0.224138
28315	-0.00102156	0.219597
28354	-0.00109786	0.215682
28393	-0.00105971	0.212788
28432	-0.00113601	0.209738
28471	-0.00102156	0.205696
28510	-0.00092619	0.202162
28549	-0.00092619	0.198756
28588	-0.00109786	0.196594
28627	-0.000945264	0.193069
28666	-0.00104063	0.189831
28705	-0.00100249	0.186865
28744	-0.00100249	0.184862
28783	-0.00104063	0.182196
28822	1.49925	39.5821
28861	1.49919	22.6251
28900	1.49933	17.2053
28939	1.4995	14.2904
28978	1.49927	12.3523
29017	1.49929	10.9084
29056	1.49927	9.78098
29095	1.49927	8.83522
29134	1.49935	8.06956
29173	1.4991	7.39873
29212	1.49935	6.81255
29251	1.49931	6.2761
29290	1.49946	5.82947
29329	1.49931	5.43381
29368	1.49927	5.06833
29407	1.49935	4.72214
29446	1.49929	4.42454
29485	1.49931	4.17018
29524	1.49923	3.94056
29563	1.4995	3.72622
29602	1.49927	3.52593
29641	1.49931	3.37076
29680	1.49933	3.23062
29719	1.49931	3.10412
29758	1.49931	2.97246
29797	1.49929	2.87081
29836	1.49944	2.78448
29875	1.49931	2.69833
29914	1.49946	2.61608
29953	1.49935	2.53481
29992	1.49923	2.48163
30031	1.49916	2.4231
30070	1.49931	2.36743
30109	1.49904	2.29658
30148	1.4994	2.26009
30187	1.49925	2.21941
30226	1.49933	2.17683
30265	1.49944	2.12093
30304	1.49931	2.0854
30343	1.49925	2.06053
30382	1.49937	2.0259
30421	1.49927	1.98724
30460	1.49942	1.94191
30499	1.49937	1.92873
30538	1.4994	1.90208
30577	1.49935	1.87548
30616	-0.000907116	-1.89685
30655	-0.000888042	-0.18837
30694	-0.000983412	0.00821502
30733	-0.00104063	0.0547552
30772	-0.000983412	0.0692951
30811	-0.00109786	0.07026
30850	-0.00107878	0.0672658
30889	-0.00105971	0.0644673
30928	-0.000983412	0.0633417
30967	-0.00102156	0.0620607
31006	-0.00113601	0.0592033
31045	-0.000983412	0.0569528
31084	-0.00102156	0.0555805
31123	-0.000983412	0.0556617
31162	-0.00117415	0.0535105
31201	-0.00100249	0.0520495
31240	-0.00107878	0.0505248
31279	-0.00104063	0.0514449
31318	-0.00111693	0.0494977
31357	-0.000983412	0.0480161
31396	-0.000888042	0.0475198
31435	-0.00117415	0.0472237
31474	-0.00100249	0.0472203
31513	-0.000983412	0.0461326
31552	-0.00105971	0.0450316
31591	-0.00105971	0.04433
31630	-0.00102156	0.0451867
31669	-0.000964338	0.0439104
31708	-0.00104063	0.0429128
31747	-0.00105971	0.0423419
31786	-0.00111693	0.042941
31825	-0.00119323	0.0423009
31864	-0.00104063	0.0415261
31903	-0.00105971	0.0407804
31942	-0.00123138	0.041014
31981	-0.00117415	0.0409682
32020	-0.0012123	0.0401865
32059	-0.00113601	0.0394805
32098	-0.00104063	0.0395266
32137	-0.000964338	0.0398528
32176	-0.00104063	0.0391086
32215	-0.00104063	0.0382242
32254	-0.000983412	0.0375333
32293	-0.00083082	0.0385113
32332	-0.00119323	0.0383314
32371	-0.000983412	0.0379668
32410	-0.00100249	0.0367511
32449	-0.00119323	0.0369963
32488	-0.000983412	0.0371769
32527	-0.00107878	0.0360648
32566	-0.00111693	0.0364183
32605	-0.00105971	0.0357568
32644	-0.00102156	0.0357191
32683	-0.000945264	0.0355053
32722	-0.000983412	0.0347351
32761	-0.00092619	0.0343778
32800	-0.00109786	0.0351813
32839	-0.00104063	0.0347298
32878	-0.00107878	0.0341336
32917	-0.00100249	0.0332832
32956	-0.00107878	0.0337978
32995	-0.00111693	0.0335903
33034	-0.00109786	0.0330656
33073	-0.00100249	0.0333499
33112	-0.00111693	0.0326632
33151	-0.00107878	0.0328879
33190	-0.000945264	0.0324234
33229	-0.00102156	0.0316238
33268	-0.00104063	0.0316085
33307	-0.00104063	0.0323489
33346	-0.00104063	0.0318983
33385	-0.00111693	0.0313174
33424	-0.000964338	0.0308999
33463	-0.00102156	0.0309828
33502	-0.000907116	0.030841
33541	-0.00115508	0.0301217
33580	-0.00102156	0.0298114
33619	-0.000983412	0.0302778
33658	-0.00092619	0.030254
33697	-0.00102156	0.0297998
33736	-0.00111693	0.029668
33775	-0.000964338	0.0291014
33814	-0.000983412	0.0297623
33853	-0.00123138	0.0294382
33892	-0.00113601	0.029293
33931	-0.00107878	0.0283114
33970	-0.00111693	0.0295294
34009	-0.00109786	0.0296133
34048	-0.00102156	0.0288272
34087	-0.00105971	0.0284132
34126	-0.00102156	0.0285783
34165	-0.00104063	0.0280708
34204	-0.00100249	0.0280754
34243	-0.000964338	0.0278424
34282	-0.000888042	0.0272857
34321	-0.00105971	0.0280805
34360	-0.00105971	0.0273326
34399	-0.00104063	0.027516
34438	-0.000983412	0.027136
34477	-0.00102156	0.0272099
34516	-0.00092619	0.0271091
34555	-0.00115508	0.0271199
34594	-0.00111693	0.0261446
34633	-0.000983412	0.0266351
34672	-0.00117415	0.0273723
34711	-0.00115508	0.0263764
34750	-0.00105971	0.0261539
34789	-0.00104063	0.0266752
34828	-0.00092619	0.0268608
34867	-0.0012123	0.0259324
34906	-0.00107878	0.0263142
34945	-0.00119323	0.0262276
34984	-0.000983412	0.0263326
35023	-0.00105971	0.0264037
35062	-0.00105971	0.0256921
35101	-0.00104063	0.0254174
35140	-0.000983412	0.0259802
35179	-0.00107878	0.0257049
35218	-0.00100249	0.0252984
35257	-0.00100249	0.0249926
35296	-0.000983412	0.0246855
35335	-0.00111693	0.0249296
35374	-0.00092619	0.0248141
35413	-0.00102156	0.0248632
35452	-0.000907116	0.0242374
35491	-0.00092619	0.0248905
35530	-0.00107878	0.0245796
35569	-0.00126952	0.0241601
35608	-0.00105971	0.0238172
35647	-0.00100249	0.0243563
35686	-0.000983412	0.024655
35725	-0.00104063	0.0237767
35764	-0.00107878	0.0235654
35803	-0.00102156	0.0236936
35842	-0.000945264	0.0236629
35881	-0.00105971	0.0241001
35920	-0.000945264	0.023327
35959	-0.000964338	0.0233374
35998	-0.00107878	0.0238453
36037	-0.00115508	0.0234426
36076	-0.00102156	0.0232461
36115	-0.00117415	0.0228269
36154	-0.00109786	0.0235007
36193	-0.000964338	0.023005
36232	-0.000945264	0.0228634
36271	-0.00100249	0.0228962
36310	-0.00111693	0.0225336
36349	-0.00104063	0.0227719
36388	-0.000907116	0.022666
36427	-0.00105971	0.0225857
36466	-0.000983412	0.0227214
36505	-0.00113601	0.022887
36544	-0.00104063	0.0229608
36583	-0.00105971	0.0222221
36622	-0.00107878	0.0222133
36661	-0.00107878	0.022815
36700	-0.00102156	0.0223588
36739	-0.000907116	0.0219263
36778	-0.00109786	0.021788
36817	-0.00105971	0.0217737
36856	-0.00092619	0.0219495
36895	-0.00100249	0.0218593
36934	-0.00107878	0.0217454
36973	-0.00109786	0.0217663
37012	-0.00104063	0.0221586
37051	-0.00105971	0.0216818
37090	-0.00105971	0.0220351
37129	-0.00092619	0.0212392
37168	-0.00100249	0.0216205
37207	-0.00100249	0.0215976
37246	-0.00100249	0.0214818
37285	-0.000964338	0.021301
37324	-0.00105971	0.0210033
37363	-0.00115508	0.0214483
37402	-0.0012123	0.0211382
37441	-0.00102156	0.0209628
37480	-0.000907116	0.0210196
37519	-0.00113601	0.0214821
37558	-0.00104063	0.0209796
37597	-0.00102156	0.0206453
37636	-0.00105971	0.0204093
37675	-0.00102156	0.021212
37714	-0.000983412	0.0206313
37753	-0.00105971	0.0208155
37792	-0.00105971	0.0204317
37831	-0.00109786	0.0208999
37870	-0.00105971	0.020928
37909	-0.00105971	0.0205555
37948	-0.000964338	0.0204702
37987	-0.00105971	0.0200716
38026	-0.00104063	0.0202877
38065	-0.000945264	0.0205092
38104	-0.000888042	0.0205785
38143	-0.00125045	0.020086
38182	-0.00100249	0.0200731
38221	-0.00104063	0.020263
38260	-0.00104063	0.0202605
38299	-0.000983412	0.019957
38338	-0.00109786	0.0202175
38377	-0.00113601	0.0203098
38416	-0.00107878	0.0199284
38455	-0.00083082	0.0195509
38494	-0.00105971	0.0194689
38533	-0.00102156	0.0200463
38572	-0.000964338	0.0196312
38611	-0.00102156	0.0197595
38650	-0.00104063	0.019815
38689	-0.000983412	0.0198292
38728	-0.00092619	0.0194915
38767	-0.00102156	0.0198398
38806	-0.00111693	0.0193976
38845	-0.00111693	0.0195841
38884	-0.000849894	0.0195727
38923	-0.00105971	0.019597
38962	-0.000964338	0.0193539
39001	-0.00100249	0.0194055
39040	-0.00100249	0.0195105
39079	-0.000964338	0.0191029
39118	-0.00102156	0.0192008
39157	-0.00115508	0.0190753
39196	-0.000945264	0.0194009
39235	-0.000983412	0.0191224
39274	-0.00109786	0.0190374
39313	-0.00107878	0.0190732
39352	-0.00107878	0.0193651
39391	-0.00104063	0.0192245
39430	-0.00109786	0.0189257
39469	-0.00100249	0.018925
39508	-0.00100249	0.0190896
39547	-0.00109786	0.0189862
39586	-0.000945264	0.0186298
39625	-2.0009	-40.0028
39664	-2.00094	-17.2362
39703	-2.00083	-11.3758
39742	-2.00086	-8.69797
39781	-2.00086	-7.47446
39820	-2.00085	-6.21728
39859	-2.00092	-5.52086
39898	-2.00085	-5.01656
39937	-2.00086	-4.72722
39976	-2.00096	-4.35159
40015	-2.00085	-4.10583
40054	-2.0009	-4.20411
40093	-2.00085	-3.76556
40132	-2.00083	-3.62849
40171	-2.00081	-3.53135
40210	-2.00081	-3.46094
40249	-2.00077	-3.34595
40288	-2.00085	-3.27443
40327	-2.00086	-3.57702
40366	-2.00077	-3.17996
40405	-2.00088	-3.13147
40444	-2.00092	-3.10762
40483	-2.00088	-3.08043
40522	-0.00102156	4.50036
40561	-0.00109786	1.64534
40600	-0.00104063	1.08162
40639	-0.00107878	0.83968
40678	-0.000964338	0.705667
40717	-0.00105971	0.620799
40756	-0.00102156	0.558222
40795	-0.00102156	0.511333
40834	-0.000849894	0.472553
40873	-0.00104063	0.443632
40912	-0.00104063	0.418298
40951	-0.00111693	0.395729
40990	-0.000983412	0.377262
41029	-0.00104063	0.362178
41068	-0.000964338	0.34953
41107	-0.00100249	0.33716
41146	-0.000983412	0.326036
41185	-0.000945264	0.316286
41224	-0.00100249	0.308427
41263	-0.00092619	0.298968
41302	-0.000945264	0.290885
41341	-0.000983412	0.282918
41380	-0.00100249	0.277054
41419	-0.00104063	0.270327
41458	-0.000964338	0.263473
41497	-0.00104063	0.257328
41536	-0.000983412	0.251038
41575	-0.00104063	0.246383
41614	-0.00102156	0.240458
41653	-0.00100249	0.234864
41692	-0.00105971	0.230439
41731	-0.000983412	0.226133
41770	-0.00102156	0.22117
41809	-0.000811746	0.216389
41848	-0.00104063	0.21238
41887	-0.00111693	0.208812
41926	-0.00111693	0.203959
41965	-0.000907116	0.199875
42004	-0.00092619	0.195487
42043	-0.00105971	0.192054
42082	-0.00105971	0.188607
42121	-0.00100249	0.184178
42160	-0.000964338	0.179882
42199	-0.00102156	0.17654
42238	-0.00109786	0.173299
42277	-0.000945264	0.168893
42316	-0.00109786	0.165628
42355	-0.00109786	0.162122
42394	-0.00100249	0.158988
42433	-0.00104063	0.156028
42472	-0.00107878	0.152745
42511	-0.00109786	0.149381
42550	-0.000945264	0.146731
42589	-0.00100249	0.144345
42628	-0.00102156	0.141062
42667	-0.00109786	0.138495
42706	-0.00115508	0.137025
42745	-0.00117415	0.13503
42784	-0.00105971	0.132357
42823	-0.00104063	0.13069
42862	-0.00104063	0.128797
42901	-0.00102156	0.127415
42940	-0.00100249	0.125851
42979	-0.000964338	0.124058
43018	-0.00104063	0.122447
43057	-0.00102156	0.120865
43096	-0.00109786	0.119492
43135	-0.00111693	0.117842
43174	-0.00117415	0.1163
43213	1.4994	44.8104
43252	1.49921	20.0403
43291	1.49942	14.4614
43330	1.49931	11.4468
43369	1.49933	9.32967
43408	1.49916	7.79372
43447	1.49929	6.66426
43486	1.4994	5.82474
43525	1.49931	5.17419
43564	1.49931	4.64606
43603	1.49935	4.24572
43642	1.49942	3.94703
43681	1.49919	3.67881
43720	1.49929	3.45863
43759	1.49929	3.2395
43798	1.49916	3.08878
43837	1.49933	2.94816
43876	1.49933	2.82365
43915	1.49931	2.70059
43954	1.49933	2.6027
43993	1.49923	2.52428
44032	1.49933	2.44548
44071	1.49927	2.37415
44110	1.4994	2.29382
44149	1.49939	2.25146
44188	1.4994	2.1999
44227	1.49923	2.15042
44266	1.49927	2.08327
44305	1.49923	2.05183
44344	1.49933	2.02236
44383	1.49925	1.98683
44422	1.49931	1.9373
44461	1.4994	1.90041
44500	1.49927	1.88596
44539	1.49931	1.85638
44578	1.49933	1.82911
44617	1.49935	1.7778
44656	1.49914	1.77594
44695	1.49942	1.75869
44734	1.49931	1.73919
44773	1.49925	1.6888
44812	1.49935	1.68113
44851	1.4994	1.67596
44890	1.49939	1.66125
44929	1.49918	1.62524
44968	1.49933	1.59939
45007	-0.00107878	-6.20113
45046	-0.00107878	-0.305673
45085	-0.000983412	-0.0442053
45124	-0.000945264	0.0134808
45163	-0.00100249	0.0291499
45202	-0.00102156	0.0355423
45241	-0.000964338	0.0359735
45280	-0.00100249	0.0377668
45319	-0.00102156	0.0361127
45358	-0.000983412	0.0354078
45397	-0.00105971	0.0353981
45436	-0.000964338	0.0346349
45475	-0.000964338	0.0344441
45514	-0.00109786	0.0329237
45553	-0.000983412	0.0323368
45592	-0.000983412	0.0328355
45631	-0.000964338	0.0317068
45670	-0.00107878	0.0318273
45709	-0.00107878	0.0305721
45748	-0.000907116	0.0299173
45787	-0.000964338	0.0305102
45826	-0.00102156	0.0295266
45865	-0.000888042	0.0292316
45904	-0.00102156	0.0287751
45943	-0.000983412	0.0288663
45982	-0.00100249	0.0284629
46021	-0.00102156	0.0278391
46060	-0.000983412	0.027596
46099	-0.000983412	0.027492
46138	-0.00109786	0.0275464
46177	-0.00113601	0.0271584
46216	-0.00105971	0.0268138
46255	-0.000964338	0.0262127
46294	-0.00109786	0.0268219
46333	-0.00100249	0.0257602
46372	-0.000945264	0.0257253
46411	-0.000945264	0.0256542
46450	-0.000983412	0.0260572
46489	-0.000907116	0.0258057
46528	-0.000907116	0.0250198
46567	-0.00102156	0.0250163
46606	-0.000945264	0.0251797
46645	-0.00102156	0.0247091
46684	-0.00104063	0.0245376
46723	-0.00109786	0.0244952
46762	-0.00105971	0.0239741
46801	-0.000945264	0.0244518
46840	-0.00105971	0.0238929
46879	-0.00100249	0.0241954
46918	-0.000945264	0.0235733
46957	-0.00111693	0.023859
46996	-0.000907116	0.0237893
47035	-0.000983412	0.0233977
47074	-0.00107878	0.0231314
47113	-0.00105971	0.0235077
47152	-0.000945264	0.0232273
47191	-0.000907116	0.0229353
47230	-0.00102156	0.0222748
47269	-0.00107878	0.0221075
47308	-0.000964338	0.0230541
47347	-0.00109786	0.0225374
47386	-0.00100249	0.0224781
47425	-0.00104063	0.0222077
47464	-0.00115508	0.0222605
47503	-0.00104063	0.0219563
47542	-0.00111693	0.021768
47581	-0.00111693	0.021713
47620	-0.00104063	0.0221426
47659	-0.000945264	0.0218549
47698	-0.00111693	0.0214772
47737	-0.00104063	0.0213488
47776	-0.00109786	0.0211831
47815	-0.000945264	0.0216846
47854	-0.00105971	0.0212004
47893	-0.00109786	0.0210773
47932	-0.000945264	0.0210292
47971	-0.00107878	0.0213671
48010	-0.00102156	0.0206542
48049	-0.000888042	0.02074
48088	-0.00104063	0.0207869
48127	-0.00100249	0.0208613
48166	-0.000868968	0.0204578
48205	-0.000983412	0.0207735
48244	-0.00100249	0.0203794
48283	-0.00092619	0.0203146
48322	-0.00107878	0.0202399
48361	-0.00111693	0.0201107
48400	-0.00104063	0.020181
48439	-0.000945264	0.0199803
48478	-0.000983412	0.0202589
48517	-0.00100249	0.0199866
48556	-0.00104063	0.0199285
48595	-0.00105971	0.0195277
48634	-0.000964338	0.0199201
48673	-0.000983412	0.0196948
48712	-0.00102156	0.0194262
48751	-0.00100249	0.0196547
48790	-0.000964338	0.019728
48829	-0.00105971	0.0196162
48868	-0.00102156	0.0193351
48907	-0.00111693	0.0192633
48946	-0.00102156	0.0191479
48985	-0.00107878	0.0192493
49024	-0.00102156	0.0186725
49063	-0.000945264	0.0189935
49102	-0.00113601	0.0191342
49141	-0.00107878	0.019034
49180	-0.00105971	0.0190019
49219	-0.00111693	0.0189744
49258	-0.000983412	0.0186756
49297	-0.000964338	0.0188158
49336	-0.00113601	0.0188141
49375	-0.00102156	0.0185547
49414	-0.00104063	0.018434
49453	-0.00105971	0.0185494
49492	-0.00111693	0.0187664
49531	-0.000964338	0.0184676
49570	-0.00105971	0.0182166
49609	-0.000983412	0.0181538
49648	-0.000983412	0.0187757
49687	-0.00105971	0.0183322
49726	-0.00111693	0.0181492
49765	-0.00100249	0.0180086
49804	-0.00104063	0.0182324
49843	-0.00115508	0.0183252
49882	-0.00115508	0.0180351
49921	-0.00105971	0.0179946
49960	-0.00105971	0.0179996
49999	-0.000983412	0.0180962
50038	-0.00107878	0.0178756
50077	-0.000868968	0.0176934
50116	-0.000983412	0.0176656
50155	-0.000888042	0.0178737
50194	-0.00102156	0.0176423
50233	-0.00092619	0.0176198
50272	-0.00105971	0.0174592
50311	-0.000849894	0.0176478
50350	-0.000983412	0.0174983
50389	-0.00113601	0.0174596
50428	-0.00109786	0.0173237
50467	-0.00104063	0.0173431
50506	-0.00092619	0.0173099
50545	-0.00107878	0.0170796
50584	-0.000983412	0.0171927
50623	-0.00109786	0.017026
50662	-0.00104063	0.0172327
50701	-0.000964338	0.0169834
50740	-0.000945264	0.0168858
50779	-0.000983412	0.0169687
50818	-0.000907116	0.0169666
50857	-0.000888042	0.0169481
50896	-0.00107878	0.0167418
50935	-0.00105971	0.0167234
50974	-0.00111693	0.0166988
51013	-0.00105971	0.0167166
51052	-0.00104063	0.0165885
51091	-0.00105971	0.0165662
51130	-0.00100249	0.0163142
51169	-0.00107878	0.0167471
51208	-0.00105971	0.0164674
51247	-0.00107878	0.0163391
51286	-0.00119323	0.0163656
51325	-0.0012123	0.0166189
51364	-0.000945264	0.0165132
51403	-0.00107878	0.0163533
51442	-0.000945264	0.0163601
51481	-0.00107878	0.0163626
51520	-0.000964338	0.016306
51559	-0.00109786	0.0162854
51598	-0.00109786	0.016252
51637	-0.00109786	0.0162759
51676	-0.00104063	0.0165504
51715	-0.00092619	0.0161901
51754	-0.00105971	0.0162268
51793	-0.00105971	0.0160658
51832	-0.00092619	0.0162928
51871	-0.00100249	0.0161611
51910	-0.000907116	0.0160898
51949	-0.00102156	0.015902
51988	-0.00100249	0.0160002
52027	-0.000983412	0.0160036
52066	-0.00102156	0.0158437
52105	-0.000983412	0.0158645
52144	-0.000964338	0.0158896
52183	-0.000964338	0.0160766
52222	-0.00107878	0.0156823
52261	-0.00092619	0.0156185
52300	-0.00107878	0.015747
52339	-0.000964338	0.0158101
52378	-0.00117415	0.0157332
52417	-0.00107878	0.0156043
52456	-0.000964338	0.015546
52495	-0.00105971	0.0155239
52534	-0.000983412	0.0156017
52573	-0.00109786	0.0155716
52612	-0.00109786	0.0154047
52651	-0.000983412	0.0153288
52690	-0.00105971	0.0155713
52729	-0.00102156	0.0152998
52768	-0.00092619	0.0154439
52807	-0.000964338	0.0152913
52846	-0.00100249	0.0154796
52885	-0.00100249	0.0152424
52924	-0.00107878	0.0151722
52963	-0.000983412	0.0152131
53002	-0.00111693	0.0151893
53041	-0.000983412	0.0152649
53080	-0.00100249	0.015209
53119	-0.00109786	0.0151452
53158	-0.00102156	0.0151043
53197	-0.00119323	0.0153036
53236	-0.00102156	0.0151534
53275	-0.00100249	0.0150905
53314	-0.00092619	0.0151091
53353	-0.000983412	0.0151706
53392	-0.00102156	0.0150489
53431	-0.000868968	0.014937
53470	-0.00107878	0.0149878
53509	-0.00109786	0.0149217
53548	-0.00107878	0.0150543
53587	-0.000849894	0.0149724
53626	-0.000983412	0.0146817
53665	-0.00107878	0.0147759
53704	-0.00115508	0.0150146
53743	-0.00105971	0.0148652
53782	-0.000983412	0.0148923
53821	-0.00092619	0.0147204
53860	-0.00105971	0.0150943
53899	-0.000983412	0.0148487
53938	-0.00102156	0.0147541
53977	-0.00104063	0.0146833
54016	-2.00086	-44.125
54055	-2.00088	-13.7417
54094	-2.00075	-9.07983
54133	-2.0009	-6.92221
54172	-2.00086	-5.83224
54211	-2.00094	-5.17078
54250	-2.00088	-4.7479
54289	-2.00086	-4.39532
54328	-2.00094	-4.14528
54367	-2.00085	-4.21931
54406	-2.00085	-3.8356
54445	-2.00073	-3.70189
54484	-2.00081	-3.60908
54523	-2.00096	-3.55229
54562	-2.00085	-3.46446
54601	-2.00086	-3.39871
54640	-2.00088	-3.69585
54679	-2.00086	-3.35114
54718	-2.00073	-3.31873
54757	-2.00086	-3.29903
54796	-2.00071	-3.30639
54835	-2.00077	-3.26636
54874	-2.00092	-3.26543
54913	-0.00104063	7.60981
54952	-0.00104063	1.58617
54991	-0.00105971	0.949896
55030	-0.00100249	0.70777
55069	-0.00100249	0.57754
55108	-0.00117415	0.494016
55147	-0.00105971	0.434856
55186	-0.00113601	0.391863
55225	-0.00109786	0.360085
55264	-0.00104063	0.33273
55303	-0.000945264	0.311034
55342	-0.00104063	0.293211
55381	-0.000964338	0.27927
55420	-0.000983412	0.265915
55459	-0.000907116	0.255035
55498	-0.000964338	0.245753
55537	-0.000964338	0.238018
55576	-0.00104063	0.230352
55615	-0.00104063	0.222712
55654	-0.00105971	0.215937
55693	-0.00109786	0.209391
55732	-0.00092619	0.203465
55771	-0.00107878	0.197041
55810	-0.00109786	0.191128
55849	-0.00102156	0.185651
55888	-0.00100249	0.180962
55927	-0.00105971	0.175054
55966	-0.000964338	0.169969
56005	-0.000983412	0.165113
56044	-0.00109786	0.160756
56083	-0.00109786	0.155785
56122	-0.00105971	0.151216
56161	-0.000849894	0.146893
56200	-0.00109786	0.14288
56239	-0.00109786	0.139216
56278	-0.00107878	0.135169
56317	-0.00105971	0.131651
56356	-0.00104063	0.128294
56395	-0.000983412	0.125787
56434	-0.000983412	0.122809
56473	-0.00104063	0.119805
56512	-0.00111693	0.117247
56551	-0.00107878	0.115216
56590	-0.00100249	0.112744
56629	-0.00123138	0.110554
56668	-0.00104063	0.108474
56707	-0.00109786	0.106589
56746	-0.00105971	0.10519
56785	-0.000964338	0.103106
56824	-0.00105971	0.101318
56863	-0.000907116	0.100017
56902	-0.00100249	0.098945
56941	-0.00104063	0.0969566
56980	-0.000964338	0.0952823
57019	-0.00105971	0.0940598
57058	-0.000964338	0.0929647
57097	-0.00111693	0.0914989
57136	-0.00105971	0.0902261
57175	-0.00104063	0.0890719
57214	-0.00104063	0.0878985
57253	-0.000964338	0.0868142
57292	-0.00100249	0.0854662
57331	-0.00104063	0.0843779
57370	-0.000983412	0.0833241
57409	-0.00107878	0.0826384
57448	-0.00113601	0.0814444
57487	-0.00109786	0.0803802
57526	-0.00111693	0.0794295
57565	-0.00102156	0.0788586
57600	-0.00100249	0.0782973