File: Data_18_Experiment/CA_001_C01.txt
time/s	Ewe/V	<I>/mA
1	1.49937	128.332
40	1.49909	7.31282
79	1.49905	4.60525
118	1.49934	3.41487
157	1.49865	2.85386
196	1.49939	2.51957
235	1.49936	2.29568
274	1.49936	2.1328
313	1.49915	2.01692
352	1.49976	1.92357
391	1.49941	1.85002
430	1.49932	1.78514
469	1.49941	1.73854
508	1.49957	1.69781
547	1.49873	1.66207
586	1.49939	1.62679
625	1.49911	1.59832
664	1.49924	1.57802
703	1.49928	1.55704
742	1.49913	1.53802
781	1.49922	1.51424
820	1.49913	1.50309
859	1.49876	1.48736
898	1.49936	1.47118
937	1.49913	1.44891
976	1.49892	1.43914
1015	1.49945	1.4293
1054	1.49829	1.4164
1093	1.49937	1.40011
1132	1.4992	1.38632
1171	1.49911	1.38142
1210	1.49882	1.37153
1249	1.49972	1.36129
1288	1.49899	1.34304
1327	1.49922	1.3419
1366	1.4996	1.3351
1405	1.49922	1.32726
1444	1.49949	1.30926
1483	1.49909	1.30659
1522	1.49979	1.30334
1561	1.49932	1.29576
1600	1.4992	1.28307
1639	1.49945	1.27332
1678	1.49936	1.27531
1717	1.4992	1.2687
1756	1.49943	1.26146
1795	1.49873	1.24414
1833.95	-0.00122289	-0.788376
1872.95	-0.000326405	-0.149433
1911.96	-0.000746035	0.0369264
1950.96	-0.000669739	0.09319
1989.96	-0.000974924	0.11668
2028.96	-0.00086048	0.13364
2067.96	-0.000822332	0.13193
2106.96	-0.000974924	0.122662
2145.96	-0.00156622	0.10721
2184.96	-0.000765109	0.0958749
2223.96	-0.000841406	0.0855951
2262.96	-0.000841406	0.0770538
2301.96	-0.000974924	0.0689049
2340.96	-0.000612517	0.0622247
2379.96	-0.00129918	0.0573301
2418.96	-0.000555294	0.0530693
2457.96	-0.000746035	0.0498076
2496.96	-0.00086048	0.0462176
2535.96	-0.000669739	0.0436471
2574.96	-0.000784183	0.0414796
2613.96	-0.00112752	0.0401371
2652.96	-0.00145178	0.0381312
2691.96	-0.000803258	0.0365442
2730.96	-0.00120381	0.0353577
2769.96	-0.000841406	0.0342398
2808.96	-0.000746035	0.0332705
2847.96	-0.000765109	0.0318684
2886.96	-0.000765109	0.0310442
2925.96	-0.00108937	0.0301439
2964.96	-0.000517146	0.0296645
3003.96	-0.00095585	0.0285716
3042.96	-0.000612517	0.028087
3081.96	-0.000269183	0.0276312
3120.96	-0.000803258	0.0271956
3159.96	-0.000784183	0.0265435
3198.96	-0.000593442	0.0258822
3237.96	-0.00105122	0.0254992
3276.96	-0.000841406	0.0251435
3315.96	-0.00135641	0.0246877
3354.96	-0.000574368	0.0241581
3393.96	-0.000269183	0.0239808
3432.96	-0.000765109	0.0235601
3471.96	-0.000822332	0.0234302
3510.96	-0.000517146	0.0228411
3549.96	-0.000784183	0.0225754
3588.96	-0.00110844	0.0222116
3627.96	-0.000574368	0.0219011
3666.96	-0.000898628	0.0215931
3705.96	-0.000841406	0.0213553
3744.96	-0.000307331	0.021162
3783.96	-0.000974924	0.0210043
3822.96	-0.000498072	0.0207267
3861.96	-0.000593442	0.0203909
3900.96	-0.00053622	0.0202183
3939.96	-0.00137548	0.0198951
3978.96	-0.000612517	0.0198495
4017.96	-0.000765109	0.0195274
4056.96	-0.000879554	0.019311
4095.96	-0.000326405	0.0191119
4134.96	-0.000383627	0.0190907
4173.96	-0.000993999	0.0188102
4212.96	-0.000803258	0.018585
4251.96	-0.00086048	0.0183276
4290.96	-0.000993999	0.0182753
4329.96	-0.0014327	0.01808
4368.96	-0.00107029	0.0178766
4407.96	-0.000841406	0.0176432
4446.96	-0.000612517	0.0176116
4485.96	-0.000898628	0.0175771
4524.96	-0.000650665	0.0173068
4563.96	-0.000765109	0.0171419
4602.96	-0.00120381	0.0170791
4641.96	-0.00105122	0.0170136
4680.96	-0.000993999	0.0168791
4719.96	-0.000669739	0.0166946
4758.96	-0.00129918	0.0165094
4797.96	-0.000993999	0.0163938
4836.96	-0.000746035	0.0164228
4875.96	-0.000974924	0.0161462
4914.96	-0.00086048	0.0160147
4953.96	-0.000612517	0.0158964
4992.96	-0.000669739	0.0159474
5031.96	-0.000574368	0.0156344
5070.96	-0.000822332	0.0155568
5109.96	-0.00107029	0.0155731
5148.96	-0.00086048	0.015405
5187.96	-0.00120381	0.015383
5226.96	-0.000917702	0.0152581
5265.96	-0.000917702	0.0151835
5304.96	-0.000898628	0.0150248
5343.96	-0.00086048	0.0150958
5382.96	-0.000498072	0.0148313
5421.96	-0.000917702	0.0148104
5460.96	-0.000688813	0.014728
5499.96	-0.000746035	0.014664
5538.96	-0.001509	0.0144778
5577.96	-0.00108937	0.0144067
5616.96	-0.000631591	0.0143223
5655.96	-0.00086048	0.0143321
5694.96	-0.00086048	0.0141543
5733.96	-0.000726961	0.0140981
5772.96	-0.000822332	0.0140557
5811.96	-0.000326405	0.0140838
5850.96	-0.00101307	0.0138998
5889.96	-0.000669739	0.0138794
5928.96	-0.00145178	0.0137715
5967.96	-0.00044085	0.0136084
6006.96	-0.000231034	0.0136878
6045.96	-0.000993999	0.0135259
6084.96	-0.000459924	0.0134385
6123.96	-0.000803258	0.0134686
6162.96	-0.00103215	0.0133915
6201.96	-0.00103215	0.0133444
6240.96	-0.000421776	0.0131217
6279.96	-0.000898628	0.0131089
6318.96	-0.00105122	0.0130707
6357.96	-0.000726961	0.0130102
6396.96	-0.00103215	0.0129164
6435.96	-0.000803258	0.0127644
6474.96	-0.000478998	0.0128109
6513.96	-0.000917702	0.0127672
6552.96	-0.000650665	0.0127082
6591.96	-0.00108937	0.0125825
6630.96	-0.000898628	0.012517
6669.96	-0.00107029	0.0125801
6708.96	-0.000879554	0.0124309
6747.96	-0.000555294	0.0123509
6786.96	-0.000898628	0.0123851
6825.96	-0.000993999	0.0123329
6864.96	-0.00103215	0.0122768
6903.96	-0.000765109	0.012136
6942.96	-0.000746035	0.0121859
6981.96	-0.000707887	0.0121568
7020.96	-0.000726961	0.0120622
7059.96	-0.00108937	0.0120502
7098.96	-0.000612517	0.0117061
7137.96	-0.00129918	0.011683
7176.96	-0.00095585	0.0118529
7215.96	-0.00105122	0.0118136
7254.96	-0.000974924	0.0117189
7293.96	-0.000784183	0.0117248
7332.96	-0.000974924	0.0116463
7371.96	-0.000555294	0.0117159
7410.96	-0.00122289	0.0116458
7449.96	-0.00156622	0.0114938
7488.96	-0.000879554	0.0113937
7527.96	-0.00086048	0.0115058
7566.96	-0.00141363	0.0113118
7605.96	-0.000726961	0.0113252
7644.96	-0.00044085	0.0113004
7683.96	-0.00101307	0.0113164
7722.96	-0.000803258	0.0112104
7761.96	-0.000517146	0.0111903
7800.96	-0.000879554	0.0111021
7839.96	-0.00086048	0.0111134
7878.96	-0.000345479	0.011037
7917.96	-0.000364553	0.0110289
7956.96	-0.000993999	0.0109016
7995.96	-0.000459924	0.0108965
8034.96	-0.000822332	0.0109387
8073.96	-0.000803258	0.0108781
8112.96	-0.00086048	0.0108387
8151.96	-0.00116567	0.0107561
8190.96	-0.001509	0.0107131
8229.96	-0.000631591	0.0107068
8268.96	-0.000936776	0.0106621
8307.96	-0.000517146	0.0106941
8346.96	-0.000726961	0.0105592
8385.96	-0.000726961	0.0105572
8424.96	-0.000688813	0.0106104
8463.96	-0.00095585	0.0104206
8502.96	-0.000669739	0.0104357
8541.96	-0.000974924	0.0103529
8580.96	-0.00105122	0.0103903
8619.96	-0.00086048	0.0103101
8658.96	-0.00133733	0.0102818
8697.96	-0.000993999	0.0103646
8736.96	-0.000936776	0.0103087
8775.96	-0.000936776	0.0102369
8814.96	-0.00095585	0.0102309
8853.96	-0.00120381	0.0101891
8892.96	-0.00110844	0.010117
8931.96	-0.000612517	0.0101504
8970.96	-0.000841406	0.0100513
9009.96	-0.00095585	0.0100836
9048.96	-0.000765109	0.0100988
9087.96	-0.00118474	0.0100376
9126.96	-0.000822332	0.00990655
9165.96	-0.000498072	0.00990378
9204.96	-0.00112752	0.00996165
9243.96	-0.000688813	0.00999467
9282.96	-0.000784183	0.00981906
9321.96	-0.000612517	0.00984153
9360.96	-0.00095585	0.00983517
9399.96	-0.00133733	0.00976473
9438.96	-0.000478998	0.00970777
9477.96	-0.00112752	0.00969662
9516.96	-0.00154715	0.00970892
9555.96	-0.000326405	0.00975004
9594.96	-0.0014327	0.00955817
9633.96	-0.000726961	0.00959072
9672.96	-0.000803258	0.00959203
9711.96	-0.00021196	0.00966071
9750.96	-0.000784183	0.00944004
9789.96	-0.000459924	0.00949071
9828.96	-0.000192886	0.00951017
9867.96	-0.000726961	0.0095016
9906.96	-0.000898628	0.00944074
9945.96	-0.000879554	0.00938296
9984.96	-0.00137548	0.00931979
10024	-0.000421776	0.0092942
10063	-0.000974924	0.00936214
10102	-0.000898628	0.00926572
10141	-0.000936776	0.00933703
10180	-0.000746035	0.00925878
10219	-0.000498072	0.00926533
10258	-0.000841406	0.00916666
10297	-0.00107029	0.00912639
10336	-0.00011659	0.00919365
10375	-0.000669739	0.00910791
10414	-0.000974924	0.00910904
10453	-0.000345479	0.00898545
10492	-0.000726961	0.00918708
10531	-0.000746035	0.00903573
10570	-0.000707887	0.00913946
10609	-0.000898628	0.0091564
10648	-0.00086048	0.00895006
10687	-0.000402701	0.00894451
10726	-0.000917702	0.00894075
10765	-0.000555294	0.00897557
10804	-1.0005	-19.7272
10843	-1.00086	-2.4699
10882	-1.00093	-1.38307
10921	-1.00093	-0.980662
10960	-1.00053	-0.771244
10999	-1.00048	-0.641558
11038	-1.00147	-0.553963
11077	-1.00088	-0.488436
11116	-1.00113	-0.439515
11155	-1.00097	-0.400316
11194	-1.00122	-0.368538
11233	-1.00052	-0.342116
11272	-1.00105	-0.318892
11311	-1.00092	-0.299592
11350	-1.00072	-0.28297
11389	-1.00074	-0.268411
11428	-1.00082	-0.254859
11467	-1.00114	-0.2433
11506	-1.00074	-0.232737
11545	-1.00105	-0.223742
11584	-1.00082	-0.214885
11623	-1.00128	-0.206908
11662	-1.00086	-0.199725
11701	-0.00086048	44.4565
11740	-0.00101307	0.894263
11779	-0.00126104	0.525371
11818	-0.000364553	0.384802
11857	-0.000822332	0.309944
11896	-0.000707887	0.262703
11935	-0.000402701	0.228265
11974	-0.000574368	0.203259
12013	-0.000784183	0.183738
12052	-0.000879554	0.168079
12091	-0.000917702	0.154635
12130	-0.000555294	0.143327
12169	-0.000669739	0.133845
12208	-0.000936776	0.125708
12247	-0.00145178	0.118727
12286	-0.000650665	0.111977
12325	-0.000803258	0.106346
12364	-0.000746035	0.101225
12403	-0.000688813	0.0968612
12442	-0.00086048	0.0924216
12481	-0.00181418	0.088534
12520	-0.000555294	0.084983
12559	-0.000879554	0.0819074
12598	-0.00145178	0.0789451
12637	-0.000898628	0.0760691
12676	-0.000841406	0.073636
12715	-0.000688813	0.0711072
12754	-0.000593442	0.0690462
12793	-0.000974924	0.0668266
12832	-0.00110844	0.064828
12871	-0.000917702	0.062887
12910	-0.00133733	0.0612878
12949	-0.000707887	0.0597105
12988	-0.00108937	0.058072
13027	-0.00095585	0.0565559
13066	-0.000517146	0.0553808
13105	-0.000631591	0.053982
13144	-0.000726961	0.0527279
13183	-0.000898628	0.0514957
13222	-0.000746035	0.0504874
13261	-0.000707887	0.0495075
13300	-0.00105122	0.047967
13339	-0.00107029	0.0471265
13378	-0.00103215	0.0462374
13417	-0.00086048	0.0455593
13456	-0.000688813	0.0444679
13495	-0.000383627	0.0436772
13534	-0.000936776	0.0427599
13573	-0.000917702	0.0421577
13612	-0.000421776	0.0412012
13651	-0.00108937	0.0405572
13690	-0.00053622	0.0399959
13729	-0.000841406	0.0395057
13768	-0.00053622	0.038949
13807	-0.000726961	0.0381867
13846	-0.00095585	0.0375278
13885	-0.00131826	0.0369879
13924	-0.00101307	0.036559
13963	-0.00101307	0.0359902
14002	-0.00108937	0.0353933
14041	-0.00108937	0.0349204
14080	-0.000612517	0.0344964
14119	-0.000993999	0.034011
14158	-0.00114659	0.0335235
14197	-0.00124196	0.0331308
14236	-0.00108937	0.0328298
14275	-0.00101307	0.0324094
14314	-0.000765109	0.0318526
14353	-0.0014327	0.0315052
14392	-2.14526e-06	0.0310679
14431	1.49918	8.04975
14470	1.49917	4.39415
14509	1.49901	3.14581
14548	1.49962	2.61582
14587	1.49905	2.30046
14626	1.49932	2.10261
14665	1.49924	1.95939
14704	1.4993	1.85072
14743	1.49922	1.76897
14782	1.49987	1.69993
14821	1.49899	1.64901
14860	1.49915	1.60483
14899	1.49917	1.56698
14938	1.49958	1.52919
14977	1.49949	1.50548
15016	1.4993	1.48236
15055	1.49897	1.46047
15094	1.49901	1.43507
15133	1.49943	1.41899
15172	1.49918	1.40713
15211	1.49909	1.39211
15250	1.49922	1.37592
15289	1.49932	1.35737
15328	1.49913	1.35306
15367	1.49932	1.34197
15406	1.49918	1.33117
15445	1.49974	1.31145
15484	1.49953	1.30899
15523	1.49939	1.30059
15562	1.49949	1.29046
15601	1.49903	1.27313
15640	1.49937	1.2662
15679	1.4996	1.26471
15718	1.49936	1.25634
15757	1.49945	1.24538
15796	1.49955	1.23144
15835	1.49913	1.23453
15874	1.49937	1.22901
15913	1.49949	1.2228
15952	1.49939	1.20425
15991	1.49985	1.20824
16030	1.49928	1.20673
16069	1.49922	1.20178
16108	1.49966	1.18633
16147	1.49926	1.18441
16186	1.49899	1.18787
16225	-0.000383627	-1.24757
16264	-0.000669739	-0.253128
16303	-0.000841406	-0.0379466
16342	-0.00124196	0.0731365
16381	-0.000593442	0.120702
16420	-0.00139455	0.135278
16459	-0.000784183	0.128692
16498	-0.000612517	0.120236
16537	-0.000669739	0.112066
16576	-0.000364553	0.101148
16615	-0.00110844	0.0905272
16654	-0.000784183	0.0795707
16693	-0.000555294	0.0718765
16732	-0.000669739	0.0653309
16771	-0.00154715	0.0601656
16810	-0.000765109	0.0549341
16849	-0.000631591	0.050787
16888	-0.00086048	0.0475233
16927	-0.000517146	0.0450393
16966	-0.000917702	0.042851
17005	-0.000784183	0.0403688
17044	-0.00116567	0.0387721
17083	-0.000784183	0.0369747
17122	-0.00103215	0.0360911
17161	-0.000650665	0.0343858
17200	-0.000822332	0.033215
17239	-0.00086048	0.0321957
17278	-0.00133733	0.0315115
17317	-0.00168067	0.0305223
17356	-0.000650665	0.0297833
17395	-0.000879554	0.0289552
17434	-0.000898628	0.0285314
17473	-0.00101307	0.0280048
17512	-0.000688813	0.0272039
17551	-0.000936776	0.0267375
17590	-0.000822332	0.0261215
17629	-0.000593442	0.0259298
17668	-0.00095585	0.0253088
17707	-0.000898628	0.0248442
17746	-0.000612517	0.0242679
17785	-0.000593442	0.0241929
17824	-0.000726961	0.0236965
17863	-0.000936776	0.023305
17902	-0.000707887	0.022872
17941	-0.00122289	0.0227595
17980	-0.000898628	0.0225208
18019	-0.00044085	0.0219808
18058	-0.00086048	0.021757
18097	-0.000803258	0.0214526
18136	-0.000917702	0.0214485
18175	-0.000993999	0.0208388
18214	-0.000478998	0.0207067
18253	-0.000707887	0.020417
18292	-0.00101307	0.0204167
18331	-0.000917702	0.0200073
18370	-0.00118474	0.0196601
18409	-0.00131826	0.0195591
18448	-0.000746035	0.0194851
18487	-0.00101307	0.0193385
18526	-0.000898628	0.01892
18565	-0.000822332	0.0188705
18604	-0.000822332	0.0185599
18643	-0.000993999	0.0186504
18682	-0.000650665	0.0182945
18721	-0.000650665	0.0181845
18760	-0.000879554	0.0179129
18799	-0.000765109	0.0179904
18838	-0.000784183	0.0178567
18877	-0.000746035	0.017548
18916	-0.000879554	0.0173691
18955	-0.00103215	0.0173753
18994	-0.00116567	0.0172859
19033	-0.000669739	0.0169625
19072	-0.000803258	0.0168178
19111	-0.000898628	0.0166497
19150	-0.000669739	0.0167504
19189	-0.00118474	0.0164641
19228	-0.00086048	0.016391
19267	-0.000478998	0.0162882
19306	-0.000574368	0.0162619
19345	-0.000574368	0.01612
19384	-0.000993999	0.0158346
19423	-0.000803258	0.0157798
19462	-0.000917702	0.0156695
19501	-0.000478998	0.0157157
19540	-0.000326405	0.0155262
19579	-0.000993999	0.0153784
19618	-0.000669739	0.015349
19657	-0.000917702	0.0153749
19696	-0.000784183	0.0151985
19735	-0.000822332	0.015041
19774	-0.00086048	0.0149433
19813	-0.00108937	0.0149861
19852	-0.00122289	0.0149064
19891	-0.00044085	0.0147618
19930	-0.000803258	0.0147011
19969	-0.000803258	0.0144856
20008	-0.000765109	0.0144742
20047	-0.000574368	0.014397
20086	-0.00101307	0.0142808
20125	-0.00086048	0.014045
20164	-0.00105122	0.014264
20203	-0.000936776	0.013857
20242	-0.00103215	0.0139704
20281	-0.000765109	0.0139835
20320	-0.000498072	0.0139812
20359	-0.000765109	0.0138103
20398	-0.00086048	0.0136407
20437	-0.000593442	0.0136664
20476	-0.000459924	0.0135968
20515	-0.000726961	0.0135133
20554	-0.000841406	0.0134878
20593	-0.00122289	0.0132667
20632	-0.00128011	0.0132615
20671	-0.000688813	0.0132115
20710	-0.000688813	0.0131511
20749	-0.000898628	0.0131255
20788	-0.00128011	0.0129725
20827	-0.00179511	0.0130526
20866	-0.000650665	0.0129492
20905	-0.000250109	0.0128794
20944	-0.000707887	0.0129549
20983	-0.00101307	0.0128783
21022	-0.00101307	0.0127848
21061	-0.00101307	0.0125296
21100	-0.000688813	0.0126064
21139	-0.000917702	0.0125917
21178	-0.000593442	0.0127591
21217	-0.000612517	0.0124835
21256	-0.00114659	0.0123684
21295	-0.00137548	0.0123618
21334	-0.000765109	0.012474
21373	-0.00147085	0.012219
21412	-0.00107029	0.0122361
21451	-0.00133733	0.0122351
21490	-0.00044085	0.0121374
21529	-0.00110844	0.012216
21568	-0.00108937	0.0120112
21607	-0.00110844	0.0121555
21646	-0.00103215	0.0119513
21685	-0.00053622	0.0119407
21724	-0.000841406	0.011898
21763	-0.000822332	0.0118256
21802	-0.000746035	0.0119062
21841	-0.00124196	0.0118001
21880	-0.000822332	0.0117864
21919	-0.000784183	0.0117005
21958	-0.00107029	0.0116889
21997	-0.00154715	0.0116252
22036	-0.00044085	0.0115939
22075	-0.00101307	0.0114535
22114	-0.000936776	0.0114667
22153	-0.00120381	0.0114404
22192	-0.000688813	0.0114829
22231	-0.00108937	0.01119
22270	-0.00107029	0.011429
22309	-0.000936776	0.0111871
22348	-0.000135664	0.0111843
22387	-0.000822332	0.0112025
22426	-0.000192886	0.0110234
22465	-0.00105122	0.0110569
22504	-0.000593442	0.0110982
22543	-0.000803258	0.0109886
22582	-0.000841406	0.0108968
22621	-0.00107029	0.0109351
22660	-0.000974924	0.0108473
22699	-0.0014327	0.0109553
22738	-0.000993999	0.0107766
22777	-0.000707887	0.0107342
22816	-0.00108937	0.0108097
22855	-0.00095585	0.0107419
22894	-0.000879554	0.010663
22933	-0.000726961	0.0106144
22972	-0.000478998	0.0106894
23011	-0.0014327	0.0105714
23050	-0.000974924	0.0105834
23089	-0.000345479	0.0104974
23128	-0.000383627	0.010411
23167	-0.00095585	0.0103951
23206	-0.000765109	0.0104366
23245	-0.000841406	0.0103712
23284	-0.00139455	0.01035
23323	-0.000726961	0.0102952
23362	-0.00103215	0.0104087
23401	-0.000707887	0.0103264
23440	-0.0015853	0.0102434
23479	-0.000707887	0.0102272
23518	-0.000517146	0.0102406
23557	-0.000765109	0.0103369
23596	-0.00105122	0.010003
23635	-0.000841406	0.0100628
23674	-0.000898628	0.0100327
23713	-0.00095585	0.0101223
23752	-0.000784183	0.0100606
23791	-0.000650665	0.0100518
23830	-0.000650665	0.00990977
23869	-0.00086048	0.0100907
23908	-0.000841406	0.0099742
23947	-0.00107029	0.00991119
23986	-0.000555294	0.00991301
24025	-0.00137548	0.00986658
24064	-0.00105122	0.00991998
24103	-0.00116567	0.00973763
24142	-0.000841406	0.00976083
24181	-0.00116567	0.00973134
24220	-0.00126104	0.00977737
24259	-0.000917702	0.0097058
24298	-0.00126104	0.00976842
24337	-0.00101307	0.0094636
24376	-0.000555294	0.00959808
24415	-0.000650665	0.00960249
24454	-0.00108937	0.0095489
24493	-0.00044085	0.00959257
24532	-0.000974924	0.00954475
24571	-0.00095585	0.00936758
24610	-0.000631591	0.0093712
24649	-0.000974924	0.00937422
24688	-0.0015853	0.00943342
24727	-0.000898628	0.00938516
24766	-0.000746035	0.00936452
24805	-0.000822332	0.00936489
24844	-0.000650665	0.00928898
24883	-0.00086048	0.00945144
24922	-0.000841406	0.00932458
24961	-0.00145178	0.0093773
25000	-0.000746035	0.00925316
25039	-0.000784183	0.00927685
25078	-0.00141363	0.00927052
25117	-0.00053622	0.00915634
25156	-0.000688813	0.00918233
25195	-0.000993999	0.00900228
25234	-1.00055	-2.85968
25273	-1.00084	-1.3918
25312	-1.00105	-0.946507
25351	-1.00095	-0.728589
25390	-1.00025	-0.600486
25429	-1.00097	-0.511487
25468	-1.0008	-0.451116
25507	-1.00113	-0.403853
25546	-1.00095	-0.367783
25585	-1.00097	-0.336957
25624	-1.00072	-0.311797
25663	-1.00061	-0.290953
25702	-1.00036	-0.273822
25741	-1.00074	-0.257997
25780	-1.00128	-0.24433
25819	-1.00078	-0.232366
25858	-0.999905	-0.221965
25897	-1.00145	-0.212855
25936	-1.00116	-0.203752
25975	-1.00076	-0.196036
26014	-1.00113	-0.188969
26053	-1.00086	-0.183024
26092	-1.00067	-0.176647
26131	-0.00095585	1.05845
26170	-0.000765109	0.552154
26209	-0.00120381	0.38965
26248	-0.000746035	0.307303
26287	-0.00114659	0.255626
26326	-0.000574368	0.221394
26365	-0.000669739	0.196063
26404	-0.00112752	0.176671
26443	-0.000917702	0.160288
26482	-0.00101307	0.147543
26521	-0.000917702	0.136581
26560	-0.000841406	0.12768
26599	-0.000898628	0.119068
26638	-0.000784183	0.11223
26677	-0.00108937	0.106213
26716	-0.00110844	0.100911
26755	-0.000746035	0.0957869
26794	-0.00095585	0.0912125
26833	-0.000593442	0.0871739
26872	-0.000841406	0.0837036
26911	-0.000555294	0.0804483
26950	-0.000402701	0.0772119
26989	-0.00086048	0.0744123
27028	-0.000593442	0.07175
27067	-0.000612517	0.0694756
27106	-0.00120381	0.067014
27145	-0.000879554	0.0648921
27184	-0.000307331	0.0629197
27223	-0.00124196	0.0612603
27262	-0.000765109	0.0593619
27301	-0.000135664	0.0577198
27340	-0.000746035	0.0562444
27379	-0.00021196	0.0547006
27418	-0.000574368	0.0535075
27457	-0.000879554	0.0520531
27496	-0.000612517	0.0509041
27535	-0.000822332	0.0496939
27574	-0.00103215	0.0486018
27613	-0.000822332	0.0474826
27652	-0.000707887	0.0462901
27691	-0.000383627	0.0453599
27730	-0.000879554	0.0444892
27769	-0.00053622	0.0437555
27808	-0.00126104	0.0426741
27847	-0.000803258	0.0419517
27886	-0.000917702	0.0412467
27925	-0.00095585	0.0404401
27964	-0.00110844	0.0396206
28003	-5.93676e-05	0.0390171
28042	-0.000974924	0.038289
28081	-0.00120381	0.0377374
28120	-0.000726961	0.0371774
28159	-0.000841406	0.03642
28198	-0.00095585	0.0360238
28237	-0.00101307	0.0355138
28276	-0.00095585	0.0348824
28315	-0.000822332	0.0343128
28354	-0.000612517	0.0338529
28393	-0.000822332	0.0330278
28432	-0.000612517	0.0330047
28471	-0.00095585	0.0324641
28510	-0.000803258	0.0319721
28549	-0.00101307	0.031678
28588	-0.00108937	0.0313051
28627	-0.000688813	0.0309243
28666	-0.00053622	0.0305234
28705	-0.000841406	0.030046
28744	-0.000421776	0.0296791
28783	-0.00103215	0.0294705
28822	1.49949	10.0224
28861	1.49928	4.56142
28900	1.49943	3.17822
28939	1.49949	2.56756
28978	1.49924	2.25322
29017	1.49897	2.04403
29056	1.49888	1.90015
29095	1.49928	1.79099
29134	1.49934	1.71448
29173	1.49945	1.65138
29212	1.49949	1.6002
29251	1.49896	1.55308
29290	1.49907	1.51808
29329	1.49926	1.49136
29368	1.49958	1.46507
29407	1.49957	1.43941
29446	1.49873	1.41294
29485	1.49934	1.3996
29524	1.49966	1.38319
29563	1.49909	1.3675
29602	1.4992	1.34515
29641	1.4985	1.33844
29680	1.49941	1.32892
29719	1.49915	1.31735
29758	1.49917	1.30119
29797	1.49964	1.28948
29836	1.49917	1.28721
29875	1.49924	1.2776
29914	1.49966	1.26748
29953	1.49951	1.25043
29992	1.4992	1.25206
30031	1.49957	1.24573
30070	1.4993	1.23797
30109	1.49909	1.21913
30148	1.49896	1.21984
30187	1.49884	1.21785
30226	1.49859	1.21173
30265	1.49972	1.19861
30304	1.49918	1.19141
30343	1.49924	1.19513
30382	1.49907	1.18935
30421	1.49886	1.18233
30460	1.49926	1.16668
30499	1.4992	1.17394
30538	1.49907	1.17045
30577	1.49985	1.16601
30616	-0.000784183	-2.34814
30655	-0.00053622	-0.373433
30694	-0.000917702	-0.0526325
30733	-0.000917702	0.0641125
30772	-0.00116567	0.109022
30811	-0.000593442	0.117951
30850	-0.00103215	0.128438
30889	-0.00152807	0.125924
30928	-0.000879554	0.116842
30967	-0.000841406	0.103196
31006	-0.00148993	0.0919289
31045	-0.000803258	0.0827079
31084	-0.000898628	0.0742339
31123	-0.00095585	0.0672924
31162	-0.00095585	0.0606437
31201	-0.000993999	0.0559033
31240	-0.000917702	0.0519932
31279	-0.000974924	0.0491153
31318	-0.000612517	0.0453177
31357	-0.000555294	0.0428605
31396	-0.000765109	0.0408062
31435	-0.000250109	0.0390805
31474	-0.000936776	0.0373913
31513	-0.000688813	0.0355827
31552	-0.000746035	0.0341172
31591	-0.000631591	0.0332359
31630	-0.00135641	0.0323136
31669	-0.000383627	0.0311613
31708	-0.00108937	0.0302802
31747	-0.000707887	0.0293574
31786	-0.00116567	0.0288808
31825	-0.000822332	0.0279405
31864	-0.000841406	0.0271759
31903	-0.000822332	0.0266628
31942	-0.000746035	0.0264382
31981	-0.00171881	0.0257061
32020	-0.000345479	0.0251114
32059	-0.000822332	0.0245504
32098	-0.000688813	0.0240431
32137	-0.000459924	0.0238699
32176	-0.00101307	0.0232583
32215	-0.000993999	0.0228412
32254	-0.000478998	0.022725
32293	-0.000459924	0.0225209
32332	-0.00101307	0.0219023
32371	-0.000936776	0.0216272
32410	-0.000993999	0.0213189
32449	-0.000498072	0.0211834
32488	-0.00116567	0.0209677
32527	-0.000936776	0.0202895
32566	-0.000593442	0.0203687
32605	-0.000993999	0.0199454
32644	-0.00086048	0.0198553
32683	-0.00110844	0.0195996
32722	-0.000746035	0.019244
32761	-0.00095585	0.0190794
32800	-0.00103215	0.0188937
32839	-0.000841406	0.0186972
32878	-0.00122289	0.0184357
32917	-0.00086048	0.0183441
32956	-0.00129918	0.0182518
32995	-0.000765109	0.018155
33034	-0.000669739	0.0177363
33073	-0.00112752	0.0174472
33112	-0.000917702	0.0174269
33151	-0.000765109	0.0173165
33190	-0.000803258	0.0169966
33229	-0.00086048	0.0169684
33268	-0.000746035	0.0168396
33307	-0.000231034	0.016726
33346	-0.000326405	0.0163722
33385	-0.000936776	0.0163578
33424	-0.000765109	0.0162179
33463	-0.000574368	0.0161901
33502	-0.000726961	0.0161052
33541	-0.000650665	0.015767
33580	-0.000765109	0.0156285
33619	-0.000822332	0.0155681
33658	-0.000841406	0.0154925
33697	-0.000841406	0.0153091
33736	-0.000917702	0.0151432
33775	-0.000784183	0.0149344
33814	-0.000898628	0.01508
33853	-0.000822332	0.014977
33892	-0.00116567	0.0147984
33931	-0.00044085	0.0146423
33970	-0.00148993	0.0147151
34009	-0.000803258	0.0146151
34048	-0.000974924	0.0143259
34087	-0.000803258	0.0142401
34126	-0.000822332	0.0142133
34165	-0.000765109	0.0142073
34204	-0.000822332	0.0139425
34243	-0.000974924	0.0139023
34282	-0.000936776	0.0138808
34321	-0.00095585	0.0138992
34360	-0.00108937	0.0137297
34399	-0.000517146	0.0135379
34438	-0.000841406	0.0137536
34477	-0.000593442	0.013539
34516	-0.000765109	0.0134819
34555	-0.000765109	0.0133014
34594	-0.000936776	0.0132622
34633	-0.000765109	0.0132673
34672	-0.000993999	0.0134172
34711	-0.000879554	0.0130805
34750	-0.000917702	0.0129796
34789	-0.00126104	0.0129472
34828	-0.000841406	0.0128666
34867	-0.000898628	0.0127436
34906	-0.00107029	0.0126723
34945	-0.000478998	0.0126669
34984	-0.000383627	0.0127844
35023	-0.000688813	0.0124857
35062	-0.00086048	0.0124582
35101	-0.00120381	0.0123522
35140	-0.00107029	0.0123601
35179	-0.000498072	0.0123297
35218	-0.000898628	0.0122928
35257	-0.000612517	0.0122749
35296	-0.00095585	0.0121919
35335	-0.00120381	0.0122366
35374	-0.000593442	0.0120731
35413	-0.000688813	0.0118991
35452	-0.000936776	0.0118616
35491	-0.00105122	0.0118891
35530	-0.000688813	0.011759
35569	-0.000841406	0.0116664
35608	-0.000574368	0.0117423
35647	-0.00110844	0.011666
35686	-0.000784183	0.0117157
35725	-0.00101307	0.0115897
35764	-0.000822332	0.0115072
35803	-0.000765109	0.0113258
35842	-0.00107029	0.011543
35881	-0.000784183	0.0113642
35920	-0.000707887	0.0112665
35959	-0.000917702	0.0112654
35998	-0.000993999	0.0113057
36037	-0.00095585	0.0112642
36076	-0.000974924	0.011201
36115	-0.000974924	0.0110875
36154	-0.000688813	0.0109899
36193	-0.000192886	0.0110026
36232	-0.000841406	0.0109402
36271	-0.000478998	0.0109521
36310	-0.00124196	0.0108021
36349	-0.000383627	0.0109735
36388	-0.000917702	0.0109027
36427	-0.000517146	0.0107372
36466	-0.000612517	0.0106978
36505	-0.000498072	0.010739
36544	-0.000498072	0.0105817
36583	-0.000402701	0.0106312
36622	-0.000459924	0.0106315
36661	-0.00141363	0.0105583
36700	-0.000936776	0.0107674
36739	-0.00128011	0.0103531
36778	-0.000917702	0.010364
36817	-0.00107029	0.0105157
36856	-0.00128011	0.01048
36895	-0.000879554	0.0102923
36934	-0.000498072	0.0103533
36973	-0.000402701	0.010143
37012	-0.00103215	0.0102962
37051	-0.000650665	0.0101505
37090	-0.000822332	0.0101131
37129	-0.00126104	0.0100723
37168	-0.00126104	0.0100713
37207	-0.00126104	0.0101791
37246	-0.00148993	0.0100596
37285	-0.00105122	0.0099454
37324	-0.00095585	0.0101499
37363	-0.00105122	0.010034
37402	-0.000669739	0.010064
37441	-0.00095585	0.00995923
37480	-0.000421776	0.00987493
37519	-0.000841406	0.0098563
37558	-0.000326405	0.00975769
37597	-0.000669739	0.00978193
37636	-0.000879554	0.00969476
37675	-0.000669739	0.00970191
37714	-0.000879554	0.00975651
37753	-0.00118474	0.00965899
37792	-0.000917702	0.00968107
37831	-0.000765109	0.00950814
37870	-0.000478998	0.00962734
37909	-0.000765109	0.0095979
37948	-0.00095585	0.00946351
37987	-0.000631591	0.00948479
38026	-0.00122289	0.00959777
38065	-0.00101307	0.00928256
38104	-0.000593442	0.00943949
38143	-0.000936776	0.00953271
38182	-0.00011659	0.00944394
38221	-0.000879554	0.00938607
38260	-0.00148993	0.00925598
38299	-0.0014327	0.00929312
38338	-0.000917702	0.00905219
38377	-0.000688813	0.00930974
38416	-0.00108937	0.00920711
38455	0.000169522	0.00911153
38494	-0.000612517	0.00921873
38533	-0.000803258	0.00918888
38572	-0.00131826	0.00912562
38611	-0.000555294	0.00915496
38650	-0.00105122	0.00906736
38689	-0.00135641	0.00910301
38728	-0.000498072	0.00908569
38767	-0.000574368	0.00902535
38806	-0.00053622	0.00909051
38845	-0.000803258	0.00894572
38884	-0.00114659	0.00911333
38923	-0.000707887	0.009092
38962	-0.00110844	0.00892781
39001	-0.00108937	0.00882813
39040	-0.000688813	0.00889674
39079	-0.00095585	0.00876559
39118	-0.000746035	0.00886323
39157	-0.0014327	0.00884259
39196	-0.000822332	0.0088076
39235	-0.000917702	0.00886007
39274	-0.000993999	0.00864007
39313	-0.000669739	0.00876012
39352	-0.000917702	0.00884101
39391	-0.000726961	0.00868758
39430	-0.000841406	0.0086672
39469	-0.00145178	0.00869451
39508	-0.00108937	0.00867834
39547	-0.000746035	0.00870226
39586	-0.00086048	0.00867908
39625	-1.00103	-3.59074
39664	-1.00084	-1.44876
39703	-1.00086	-0.9383
39742	-1.00086	-0.70451
39781	-1.00095	-0.570401
39820	-1.00084	-0.485878
39859	-1.00048	-0.424844
39898	-1.00082	-0.379339
39937	-1.00053	-0.34274
39976	-1.00059	-0.31426
40015	-1.00057	-0.291037
40054	-1.00069	-0.27204
40093	-1.00072	-0.254325
40132	-1.00069	-0.239999
40171	-1.00048	-0.227544
40210	-1.0005	-0.216842
40249	-1.00086	-0.206475
40288	-1.0013	-0.197513
40327	-1.0005	-0.189573
40366	-1.00126	-0.182581
40405	-1.00069	-0.17614
40444	-1.00074	-0.169705
40483	-1.00053	-0.164162
40522	-0.000612517	1.40351
40561	-0.000974924	0.593484
40600	-0.000726961	0.396536
40639	-0.000784183	0.304745
40678	-0.00116567	0.250578
40717	-0.000879554	0.214951
40756	-0.000765109	0.188229
40795	-0.000688813	0.168106
40834	-0.00118474	0.152443
40873	-0.00133733	0.13985
40912	-0.000841406	0.129068
40951	-0.000307331	0.119827
40990	-0.000726961	0.111938
41029	-0.00145178	0.105159
41068	-0.000612517	0.0994891
41107	-0.000498072	0.0938003
41146	-0.00103215	0.0891539
41185	-0.000765109	0.0849938
41224	-0.000898628	0.0814066
41263	-0.000822332	0.0778748
41302	-0.000822332	0.0743864
41341	-0.00116567	0.0716847
41380	-0.000498072	0.0690679
41419	-0.00086048	0.0665717
41458	-0.000192886	0.0641201
41497	-0.000765109	0.0621382
41536	-0.000784183	0.060151
41575	-0.000345479	0.0585574
41614	-0.000555294	0.056526
41653	-0.000974924	0.0549107
41692	-0.000421776	0.053601
41731	-0.000803258	0.0520516
41770	-0.000726961	0.0506743
41809	-0.000555294	0.0493857
41848	-0.000879554	0.048063
41887	-0.000459924	0.0468842
41926	-0.00110844	0.0460176
41965	-0.000631591	0.0446985
42004	-0.000917702	0.0437811
42043	-0.000841406	0.0427201
42082	-0.000784183	0.0420489
42121	-0.000612517	0.0411325
42160	-0.00120381	0.0401607
42199	-0.000498072	0.0395247
42238	-0.000803258	0.0388468
42277	-0.000898628	0.0380257
42316	-0.00147085	0.0375219
42355	-0.000631591	0.0368309
42394	-0.000631591	0.0362468
42433	-0.00110844	0.0355595
42472	-0.00129918	0.0350142
42511	-0.00095585	0.0344683
42550	-0.000784183	0.033832
42589	-0.000765109	0.0333951
42628	-0.000803258	0.032847
42667	-0.000726961	0.0322066
42706	-0.00147085	0.0317744
42745	-0.00108937	0.0314436
42784	-0.000326405	0.0309778
42823	-0.000478998	0.0304927
42862	-0.000784183	0.0299713
42901	-0.000746035	0.0296435
42940	-0.000765109	0.0293856
42979	-0.000917702	0.0288641
43018	-0.000593442	0.0285768
43057	-0.000917702	0.0282028
43096	-0.00021196	0.0279298
43135	-0.000231034	0.0275892
43174	-0.00095585	0.0270449
43213	1.49884	15.5111
43252	1.49901	5.02668
43291	1.49928	3.37508
43330	1.49937	2.64355
43369	1.49899	2.29243
43408	1.49943	2.06724
43447	1.49917	1.91786
43486	1.49875	1.81026
43525	1.49911	1.72778
43564	1.49928	1.66101
43603	1.49928	1.60477
43642	1.49941	1.56605
43681	1.49937	1.5311
43720	1.49918	1.50067
43759	1.49905	1.46781
43798	1.49955	1.44751
43837	1.4988	1.42965
43876	1.49922	1.41083
43915	1.49903	1.38968
43954	1.49913	1.37123
43993	1.49915	1.36359
44032	1.49979	1.35065
44071	1.49907	1.33808
44110	1.4993	1.31733
44149	1.49903	1.31471
44188	1.49943	1.3072
44227	1.49972	1.29781
44266	1.49949	1.27922
44305	1.49941	1.27427
44344	1.49926	1.2709
44383	1.49937	1.26288
44422	1.50016	1.25043
44461	1.49958	1.23853
44500	1.49951	1.24044
44539	1.49907	1.23401
44578	1.49896	1.22733
44617	1.49936	1.21008
44656	1.49915	1.21461
44695	1.49884	1.21089
44734	1.49941	1.20558
44773	1.49949	1.18867
44812	1.49949	1.18881
44851	1.49918	1.19005
44890	1.49955	1.1846
44929	1.49976	1.17401
44968	1.49943	1.16407
45007	-0.00103215	-8.1653
45046	-0.000936776	-0.505362
45085	-0.00053622	-0.0977375
45124	-0.000784183	0.0208425
45163	-0.00110844	0.0880835
45202	-0.000879554	0.123897
45241	-0.000555294	0.132636
45280	-0.000669739	0.126806
45319	-0.000898628	0.114612
45358	-0.000879554	0.105785
45397	-0.00086048	0.0953242
45436	-0.000841406	0.0857966
45475	-0.000879554	0.0761783
45514	-0.000841406	0.068333
45553	-0.000383627	0.0625207
45592	-0.000879554	0.0574937
45631	-0.000555294	0.0532623
45670	-0.000688813	0.0489793
45709	-0.000612517	0.0458619
45748	-0.000555294	0.0433562
45787	-0.000669739	0.0414536
45826	-0.000459924	0.0389807
45865	-0.000498072	0.0369692
45904	-0.000669739	0.0355214
45943	-0.000765109	0.0345413
45982	-0.00101307	0.0330839
46021	-0.000173812	0.0316661
46060	-0.00103215	0.0307037
46099	-0.00101307	0.0300244
46138	-0.000822332	0.029159
46177	-0.000936776	0.0282036
46216	-0.00044085	0.0274189
46255	-0.00086048	0.0267252
46294	-0.000612517	0.0263787
46333	-0.00108937	0.0255392
46372	-0.000631591	0.024999
46411	-0.000898628	0.0246796
46450	-0.000784183	0.0243413
46489	-0.000803258	0.0237448
46528	-0.00086048	0.0231965
46567	-0.00095585	0.0227524
46606	-0.000726961	0.0224737
46645	-0.000974924	0.0220195
46684	-0.000631591	0.0216149
46723	-0.000898628	0.021317
46762	-0.000288257	0.0210233
46801	-0.00110844	0.0209803
46840	-0.000898628	0.0203725
46879	-0.000726961	0.0198401
46918	-0.000726961	0.0198438
46957	-0.000288257	0.0196987
46996	-0.00116567	0.0194145
47035	-0.000421776	0.0189719
47074	-0.000707887	0.0188733
47113	-0.00105122	0.0188298
47152	-0.00105122	0.0185557
47191	-0.000478998	0.0181755
47230	-0.000688813	0.0180815
47269	-0.000879554	0.017829
47308	-0.00126104	0.0177276
47347	-0.00116567	0.0173267
47386	-0.00101307	0.0168346
47425	-0.000326405	0.0169739
47464	-0.00133733	0.0168508
47503	-0.000688813	0.0166297
47542	-0.000803258	0.01638
47581	-0.00116567	0.0163538
47620	-0.00139455	0.0160551
47659	-0.00108937	0.0162342
47698	-0.000574368	0.0158793
47737	-0.00112752	0.0157564
47776	-0.00086048	0.0156597
47815	-0.000574368	0.0157267
47854	-0.000822332	0.0154245
47893	-0.000593442	0.0151945
47932	-0.000345479	0.0150921
47971	-0.000993999	0.0151065
48010	-0.00135641	0.0149681
48049	-0.00105122	0.0148017
48088	-0.00118474	0.014625
48127	-0.000993999	0.0146234
48166	-0.000498072	0.0144419
48205	-0.00107029	0.0143194
48244	-0.000993999	0.0142606
48283	-0.000936776	0.0140772
48322	-0.00122289	0.0140652
48361	-0.00101307	0.0139685
48400	-0.000498072	0.0138348
48439	-0.000612517	0.013796
48478	-0.000612517	0.0137298
48517	-0.000936776	0.0135166
48556	-0.000612517	0.013449
48595	-0.000765109	0.0132784
48634	-0.00110844	0.01329
48673	-0.00148993	0.0133515
48712	-0.000784183	0.0132228
48751	-0.000707887	0.0129717
48790	-0.00095585	0.0128633
48829	-0.000688813	0.012978
48868	-0.00120381	0.0127495
48907	-0.00105122	0.0127104
48946	-0.000364553	0.0125997
48985	-0.000707887	0.0126057
49024	-0.00135641	0.0125661
49063	-7.84417e-05	0.0124069
49102	-0.000822332	0.0124979
49141	-0.000746035	0.0121663
49180	-0.00135641	0.0122928
49219	-0.00101307	0.0120933
49258	-0.00086048	0.0120167
49297	-0.000917702	0.0120204
49336	-0.000326405	0.0119989
49375	-0.000898628	0.0119654
49414	-0.000250109	0.0119471
49453	-0.00086048	0.0117418
49492	-0.000746035	0.0117929
49531	-0.000746035	0.011658
49570	-0.000574368	0.0116936
49609	-0.00112752	0.011512
49648	-0.00110844	0.0115867
49687	-0.00095585	0.0115881
49726	-0.000936776	0.0115021
49765	-0.000841406	0.0113834
49804	-0.000898628	0.0112281
49843	-0.00112752	0.01122
49882	-0.00107029	0.0111811
49921	-0.000746035	0.0111815
49960	-0.000421776	0.0111298
49999	-0.00101307	0.0111166
50038	-0.000555294	0.0109976
50077	-0.000574368	0.0109446
50116	-0.000459924	0.0109117
50155	-0.00095585	0.010988
50194	-0.000841406	0.0108487
50233	-0.000707887	0.0108623
50272	-0.00107029	0.0108257
50311	-0.000803258	0.0107028
50350	0.000264892	0.0107313
50389	-0.000726961	0.0106337
50428	-0.00129918	0.0105256
50467	-0.00137548	0.0104229
50506	-0.000765109	0.0104594
50545	-0.00137548	0.0103437
50584	-0.000898628	0.010303
50623	-0.00095585	0.0103059
50662	-0.000822332	0.0102484
50701	-0.00103215	0.0103549
50740	-0.000803258	0.0102113
50779	-0.00086048	0.0101396
50818	-0.00135641	0.0101627
50857	-0.000917702	0.0101196
50896	-0.000974924	0.0100957
50935	-0.000784183	0.0100938
50974	-0.000288257	0.0100044
51013	-0.00053622	0.0100753
51052	-0.000803258	0.0100748
51091	-0.000726961	0.00991124
51130	-0.000784183	0.00997482
51169	-0.000631591	0.00992548
51208	-0.00116567	0.00979583
51247	-0.000383627	0.00977073
51286	-0.000269183	0.00969473
51325	-0.000993999	0.0096459
51364	-0.00114659	0.0096387
51403	-0.000269183	0.00961505
51442	-0.000364553	0.00956157
51481	-0.000746035	0.00958691
51520	-0.000822332	0.00950746
51559	-0.000707887	0.00958239
51598	-0.00133733	0.00949057
51637	-0.000879554	0.0093769
51676	-0.00131826	0.00942424
51715	-0.000402701	0.00935908
51754	-0.000974924	0.00927009
51793	-0.000974924	0.00932653
51832	-0.00128011	0.00925273
51871	-0.000803258	0.00918488
51910	-0.00095585	0.00912825
51949	-0.000707887	0.00888518
51988	-0.00154715	0.00912623
52027	-0.000841406	0.00916436
52066	-0.00107029	0.00915997
52105	-0.000803258	0.00923344
52144	-0.000822332	0.00905352
52183	-0.000669739	0.008933
52222	-0.000402701	0.00912684
52261	-0.000822332	0.0089675
52300	-0.000822332	0.00899914
52339	-0.000421776	0.00887505
52378	-0.000345479	0.00905378
52417	-0.000345479	0.00895467
52456	-0.000765109	0.00892727
52495	-0.000803258	0.00885065
52534	-0.000917702	0.00881106
52573	-0.000822332	0.00883009
52612	-0.000898628	0.00877803
52651	-0.000154738	0.00869205
52690	-0.00103215	0.0087784
52729	-0.000784183	0.0087481
52768	-0.000822332	0.00880186
52807	-0.000841406	0.00860992
52846	-0.000726961	0.00867033
52885	-0.000803258	0.00869616
52924	-0.00086048	0.00856412
52963	-0.00122289	0.00855345
53002	-0.000478998	0.00852442
53041	-0.000478998	0.00851467
53080	-0.00086048	0.00849253
53119	-0.000822332	0.00838113
53158	-0.000879554	0.00842658
53197	-0.00095585	0.00835203
53236	-0.000650665	0.00854394
53275	-0.000841406	0.00851104
53314	-0.000250109	0.00842722
53353	-0.00086048	0.00833092
53392	-0.000765109	0.00828104
53431	-0.000822332	0.00826516
53470	-0.00086048	0.00829862
53509	-0.000383627	0.00831011
53548	-0.00108937	0.00823276
53587	-0.000803258	0.00818102
53626	-0.000898628	0.00818927
53665	-0.000517146	0.00817573
53704	-0.000822332	0.0081798
53743	-0.000765109	0.008149
53782	-0.000898628	0.00815486
53821	-0.000478998	0.00820153
53860	-0.000593442	0.0081273
53899	-0.000631591	0.00812011
53938	-0.00110844	0.0080713
53977	-0.000726961	0.00818183
54016	-1.00032	-5.36652
54055	-1.00095	-1.57403
54094	-1.0008	-0.948455
54133	-1.00071	-0.693472
54172	-1.00099	-0.553813
54211	-1.00105	-0.468453
54250	-1.00061	-0.405442
54289	-1.00065	-0.359829
54328	-1.0008	-0.325395
54367	-1.00113	-0.298047
54406	-1.00023	-0.275102
54445	-1.00067	-0.255866
54484	-1.00069	-0.239864
54523	-1.00067	-0.22627
54562	-1.00072	-0.21454
54601	-1.00059	-0.203412
54640	-1.00086	-0.194083
54679	-1.00042	-0.1858
54718	-1.0009	-0.178765
54757	-1.0004	-0.171477
54796	-1.0008	-0.165025
54835	-1.0005	-0.159552
54874	-1.00114	-0.154809
54913	-0.00124196	2.37646
54952	-0.00101307	0.652451
54991	-0.00126104	0.411431
55030	-0.000879554	0.307996
55069	-0.00021196	0.249114
55108	-0.00086048	0.209952
55147	-0.000898628	0.182927
55186	-0.00112752	0.162458
55225	-0.000784183	0.146944
55264	-0.000574368	0.13357
55303	-0.00101307	0.122796
55342	-0.000574368	0.113914
55381	-0.000974924	0.106434
55420	-0.000898628	0.099843
55459	-0.000383627	0.0937903
55498	-0.000517146	0.0886764
55537	-0.000898628	0.0841528
55576	-0.000555294	0.0802864
55615	-0.000364553	0.0762927
55654	-0.000707887	0.073065
55693	-0.000898628	0.0700028
55732	-0.000345479	0.0674716
55771	-0.00095585	0.0647315
55810	-0.00110844	0.0622898
55849	-0.000612517	0.0602937
55888	-0.000917702	0.0582775
55927	-0.000898628	0.0564633
55966	-0.000726961	0.0546532
56005	-0.000917702	0.0529025
56044	-0.000803258	0.0512658
56083	-0.000345479	0.0500355
56122	-0.00122289	0.0483834
56161	-0.00108937	0.0471795
56200	-0.000650665	0.0459542
56239	-0.000898628	0.0448298
56278	-0.000555294	0.0437875
56317	-0.000803258	0.0426246
56356	-0.000993999	0.0414292
56395	-0.00120381	0.0408724
56434	-0.000879554	0.040007
56473	-0.000993999	0.0390419
56512	-0.000974924	0.0383722
56551	-0.000364553	0.0374743
56590	-0.00101307	0.0368942
56629	-0.00131826	0.0361037
56668	-0.000822332	0.0354098
56707	-0.00141363	0.0347539
56746	-0.00095585	0.034181
56785	-0.000917702	0.033538
56824	-0.000822332	0.0330656
56863	-0.000822332	0.0325625
56902	-0.000726961	0.0319985
56941	-0.000250109	0.0315759
56980	-0.000879554	0.0309938
57019	-0.000974924	0.0304216
57058	-0.00128011	0.0298669
57097	-0.000784183	0.029555
57136	-0.00103215	0.0290852
57175	-0.000803258	0.0287685
57214	-0.000974924	0.0283472
57253	-0.000498072	0.0279794
57292	-0.000326405	0.0274561
57331	-0.000765109	0.026979
57370	-0.000993999	0.0268243
57409	-0.000478998	0.0265578
57448	-0.000974924	0.0262171
57487	-0.000822332	0.0257489
57526	-0.000784183	0.0255717
57565	-0.000326405	0.0251655
57600	-0.000841406	0.0252768