File: Data_10_Experiment/CA_001_C01.txt
time/s	Ewe/V	<I>/mA
1	1.49923	86.7816
40	1.4994	8.43317
79	1.49921	5.90911
118	1.49923	4.77468
157	1.49937	4.15357
196	1.49923	3.7415
235	1.49933	3.49847
274	1.49918	3.34503
313	1.49925	3.3196
352	1.49921	3.45471
391	1.4994	3.54842
430	1.4994	3.56217
469	1.49927	3.40986
508	1.49929	3.55807
547	1.49927	3.63885
586	1.49933	3.65268
625	1.49916	3.42744
664	1.49935	3.43959
703	1.49925	3.53175
742	1.49918	3.54856
781	1.49944	3.41389
820	1.49919	3.31349
859	1.49935	3.42158
898	1.49933	3.46714
937	1.49935	3.43469
976	1.49918	3.25021
1015	1.49918	3.33821
1054	1.49939	3.40121
1093	1.49923	3.42183
1132	1.49918	3.24137
1171	1.49933	3.25708
1210	1.49933	3.33246
1249	1.49921	3.35785
1288	1.49919	3.24191
1327	1.49929	3.15874
1366	1.49927	3.24646
1405	1.49918	3.26995
1444	1.4994	3.237
1483	1.49923	3.08172
1522	1.49925	3.1459
1561	1.49912	3.20496
1600	1.49937	3.21898
1639	1.49937	3.06596
1678	1.49916	3.06066
1717	1.49929	3.11219
1756	1.49923	3.13423
1795	1.49923	3.0442
1833.95	-0.00104063	-0.72457
1872.95	-0.000964338	-0.26704
1911.95	-0.00104063	-0.141887
1950.95	-0.00109786	-0.085778
1989.95	-0.000945264	-0.0563536
2028.95	-0.000849894	-0.037857
2067.95	-0.000945264	-0.0251944
2106.95	-0.00117415	-0.015757
2145.95	-0.000964338	-0.00904991
2184.95	-0.00104063	-0.00457087
2223.95	-0.00117415	-0.00064971
2262.95	-0.00100249	0.00237502
2301.95	-0.000945264	0.00538968
2340.95	-0.00109786	0.00663835
2379.95	-0.000964338	0.00819724
2418.95	-0.000849894	0.00971689
2457.95	-0.00109786	0.0117073
2496.95	-0.000983412	0.0118693
2535.95	-0.00107878	0.0127854
2574.95	-0.000945264	0.013523
2613.95	-0.00113601	0.0145319
2652.95	-0.000888042	0.0148381
2691.95	-0.00111693	0.0152011
2730.95	-0.00100249	0.0156599
2769.95	-0.00104063	0.0160574
2808.95	-0.000983412	0.0167873
2847.95	-0.00113601	0.016448
2886.95	-0.00102156	0.0168364
2925.95	-0.00104063	0.0170678
2964.95	-0.00092619	0.0177347
3003.95	-0.000792671	0.0173034
3042.95	-0.00109786	0.0174764
3081.95	-0.000868968	0.0176106
3120.95	-0.000907116	0.0178844
3159.95	-0.000888042	0.0179552
3198.95	-0.00109786	0.0178821
3237.95	-0.00102156	0.0179009
3276.95	-0.00107878	0.0180424
3315.95	-0.00100249	0.0183048
3354.95	-0.000945264	0.0180099
3393.95	-0.000868968	0.0180331
3432.95	-0.00104063	0.0180477
3471.95	-0.00109786	0.0185423
3510.95	-0.00109786	0.0179704
3549.95	-0.00100249	0.0179938
3588.95	-0.00105971	0.0180973
3627.95	-0.00111693	0.0183802
3666.95	-0.000983412	0.0180802
3705.95	-0.000907116	0.0180153
3744.95	-0.00105971	0.0179678
3783.95	-0.00111693	0.0180637
3822.95	-0.000907116	0.0183612
3861.95	-0.00111693	0.0179928
3900.95	-0.00109786	0.0180418
3939.95	-0.00102156	0.0179776
3978.95	-0.000868968	0.0181418
4017.95	-0.00105971	0.0178529
4056.95	-0.000964338	0.0179006
4095.95	-0.00105971	0.0178066
4134.95	-0.00100249	0.0180836
4173.95	-0.00092619	0.0179127
4212.95	-0.00113601	0.0176906
4251.95	-0.00092619	0.017673
4290.95	-0.000907116	0.0177653
4329.95	-0.00109786	0.0177662
4368.95	-0.00102156	0.0174815
4407.95	-0.00105971	0.0175246
4446.95	-0.00104063	0.0174801
4485.95	-0.00113601	0.0176099
4524.95	-0.000907116	0.0173449
4563.95	-0.000945264	0.0173316
4602.95	-0.00113601	0.0172803
4641.95	-0.00092619	0.0174932
4680.95	-0.00119323	0.0171813
4719.95	-0.000983412	0.0171273
4758.95	-0.000983412	0.0171064
4797.95	-0.00092619	0.0171357
4836.95	-0.00102156	0.0171693
4875.95	-0.000888042	0.016931
4914.95	-0.00104063	0.0169389
4953.95	-0.0012123	0.0168493
4992.95	-0.000888042	0.0170977
5031.95	-0.00092619	0.0167044
5070.95	-0.00102156	0.0167716
5109.95	-0.00113601	0.0165671
5148.95	-0.00111693	0.0168489
5187.95	-0.00100249	0.0166418
5226.95	-0.00092619	0.016578
5265.95	-0.000945264	0.0166016
5304.95	-0.000964338	0.0166374
5343.95	-0.00102156	0.0166265
5382.95	-0.000983412	0.0163453
5421.95	-0.00105971	0.0164381
5460.95	-0.00111693	0.016308
5499.95	-0.00115508	0.0166314
5538.95	-0.00105971	0.0162184
5577.95	-0.00104063	0.0162808
5616.95	-0.00092619	0.0161879
5655.95	-0.000983412	0.016508
5694.95	-0.00102156	0.0160864
5733.95	-0.00102156	0.0161044
5772.95	-0.00102156	0.0160757
5811.95	-0.000888042	0.0161139
5850.95	-0.00105971	0.0160762
5889.95	-0.00109786	0.0159428
5928.95	-0.00109786	0.0158868
5967.95	-0.00102156	0.015924
6006.95	-0.00102156	0.0160454
6045.95	-0.00104063	0.0156925
6084.95	-0.00115508	0.0157366
6123.95	-0.000792671	0.015751
6162.95	-0.00100249	0.0157721
6201.95	-0.00105971	0.0155942
6240.95	-0.000868968	0.0154787
6279.95	-0.00113601	0.0155671
6318.95	-0.00111693	0.0154869
6357.95	-0.00104063	0.0154632
6396.95	-0.00109786	0.0154812
6435.95	-0.00111693	0.0154644
6474.95	-0.00100249	0.0153182
6513.95	-0.000888042	0.0154486
6552.95	-0.000907116	0.0152788
6591.95	-0.00102156	0.0152311
6630.95	-0.00109786	0.0151792
6669.95	-0.000964338	0.0154099
6708.95	-0.000964338	0.0151197
6747.95	-0.000983412	0.0149827
6786.95	-0.00092619	0.0150323
6825.95	-0.000983412	0.015095
6864.95	-0.000964338	0.0152428
6903.95	-0.00109786	0.0151401
6942.95	-0.00113601	0.0150114
6981.95	-0.000907116	0.0149026
7020.95	-0.000945264	0.0151042
7059.95	-0.00104063	0.0148441
7098.95	-0.00115508	0.0148083
7137.95	-0.00109786	0.0147799
7176.95	-0.00115508	0.0149814
7215.95	-0.00111693	0.0147613
7254.95	-0.000907116	0.0146385
7293.95	-0.000945264	0.014716
7332.95	-0.00100249	0.0147775
7371.95	-0.00115508	0.0146858
7410.95	-0.00102156	0.0145333
7449.95	-0.000983412	0.014609
7488.95	-0.00100249	0.0145777
7527.95	-0.000907116	0.0146692
7566.95	-0.00105971	0.0143293
7605.95	-0.00111693	0.0144509
7644.95	-0.00105971	0.0143489
7683.95	-0.00100249	0.0145248
7722.95	-0.000983412	0.0143309
7761.95	-0.00102156	0.0142159
7800.95	-0.00107878	0.0143607
7839.95	-0.000964338	0.0144326
7878.95	-0.00117415	0.0143813
7917.95	-0.000945264	0.0142057
7956.95	-0.00102156	0.0141927
7995.95	-0.00104063	0.0142401
8034.95	-0.000907116	0.0143299
8073.95	-0.00104063	0.0140446
8112.95	-0.00107878	0.0141047
8151.95	-0.000964338	0.0140738
8190.95	-0.00119323	0.0143671
8229.95	-0.000907116	0.0140234
8268.95	-0.000964338	0.0139713
8307.95	-0.000964338	0.0140741
8346.95	-0.00117415	0.0140743
8385.95	-0.00105971	0.0140757
8424.95	-0.00104063	0.0138298
8463.95	-0.00105971	0.0138406
8502.95	-0.00102156	0.0137997
8541.95	-0.000907116	0.0140256
8580.95	-0.00104063	0.0137794
8619.95	-0.000907116	0.0137079
8658.95	-0.00113601	0.013715
8697.95	-0.00100249	0.0139291
8736.95	-0.000964338	0.0136457
8775.95	-0.00113601	0.0135958
8814.95	-0.000964338	0.0136001
8853.95	-0.000983412	0.0137146
8892.95	-0.00104063	0.0137116
8931.95	-0.00100249	0.0134823
8970.95	-0.000964338	0.0133935
9009.95	-0.00104063	0.0135406
9048.95	-0.00104063	0.0135823
9087.95	-0.000907116	0.0133752
9126.95	-0.00104063	0.0133755
9165.95	-0.00104063	0.0133442
9204.95	-0.000888042	0.0135716
9243.95	-0.00100249	0.0133283
9282.95	-0.000964338	0.0132453
9321.95	-0.00105971	0.0132742
9360.95	-0.000945264	0.0133623
9399.95	-0.000964338	0.0132648
9438.95	-0.00102156	0.0131997
9477.95	-0.00107878	0.0131891
9516.95	-0.000983412	0.01317
9555.95	-0.00092619	0.0132262
9594.95	-0.000964338	0.0130362
9633.95	-0.00109786	0.0130706
9672.95	-0.00105971	0.0133894
9711.95	-0.00105971	0.0134112
9750.95	-0.00113601	0.013024
9789.95	-0.00113601	0.0130655
9828.95	-0.00104063	0.0131341
9867.95	-0.00100249	0.0131715
9906.95	-0.00107878	0.0130106
9945.95	-0.000983412	0.012869
9984.95	-0.00109786	0.0129168
10024	-0.00105971	0.012921
10063	-0.00105971	0.0128905
10102	-0.000888042	0.0128693
10141	-0.00115508	0.0128111
10180	-0.00104063	0.0127467
10219	-0.00109786	0.012901
10258	-0.00105971	0.0127026
10297	-0.00104063	0.0126752
10336	-0.00111693	0.0127754
10375	-0.00102156	0.0129017
10414	-0.000907116	0.0126301
10453	-0.000983412	0.0125635
10492	-0.00113601	0.01259
10531	-0.00100249	0.0125976
10570	-0.00100249	0.0126906
10609	-0.00104063	0.012482
10648	-0.000964338	0.0124811
10687	-0.000945264	0.0124735
10726	-0.00092619	0.0125898
10765	-0.00104063	0.0123625
10804	-2.00092	-104.853
10843	-2.00075	-18.0451
10882	-2.00096	-11.491
10921	-2.00104	-9.11107
10960	-2.00081	-7.88052
10999	-2.0009	-7.15161
11038	-2.00075	-6.69187
11077	-2.001	-6.40312
11116	-2.00086	-6.19135
11155	-2.00071	-6.06821
11194	-2.00088	-6.01413
11233	-2.00083	-6.01123
11272	-2.00073	-6.0079
11311	-2.00065	-6.0304
11350	-2.00086	-6.07807
11389	-2.00073	-6.14374
11428	-2.00092	-6.22441
11467	-2.00071	-6.30586
11506	-2.00086	-6.40638
11545	-2.00083	-6.50956
11584	-2.00077	-6.6285
11623	-2.0009	-6.72719
11662	-2.0009	-6.84033
11701	-0.000983412	146.599
11740	-0.00109786	2.64395
11779	-0.00102156	1.37228
11818	-0.00104063	0.937524
11857	-0.00105971	0.727348
11896	-0.00092619	0.606402
11935	-0.00115508	0.524082
11974	-0.00109786	0.459461
12013	-0.00105971	0.414043
12052	-0.00104063	0.381334
12091	-0.000888042	0.35303
12130	-0.000945264	0.327293
12169	-0.00100249	0.307009
12208	-0.00125045	0.289966
12247	-0.00092619	0.27669
12286	-0.000983412	0.261582
12325	-0.00102156	0.24866
12364	-0.00105971	0.237712
12403	-0.000888042	0.228852
12442	-0.00107878	0.219419
12481	-0.00100249	0.21051
12520	-0.000945264	0.202395
12559	-0.00107878	0.194977
12598	-0.00113601	0.189266
12637	-0.000964338	0.182067
12676	-0.00109786	0.176318
12715	-0.00115508	0.171
12754	-0.000983412	0.166916
12793	-0.00115508	0.160802
12832	-0.00104063	0.155881
12871	-0.00107878	0.151252
12910	-0.000983412	0.147824
12949	-0.00107878	0.143316
12988	-0.00123138	0.139026
13027	-0.00113601	0.135373
13066	-0.00111693	0.132129
13105	-0.00115508	0.129251
13144	-0.00100249	0.125486
13183	-0.00092619	0.122834
13222	-0.000907116	0.119885
13261	-0.000907116	0.117926
13300	-0.00107878	0.114604
13339	-0.000983412	0.111988
13378	-0.00102156	0.109604
13417	-0.00102156	0.107872
13456	-0.00105971	0.105313
13495	-0.00100249	0.102819
13534	-0.000964338	0.100739
13573	-0.00104063	0.0989148
13612	-0.000983412	0.0973142
13651	-0.00105971	0.0949192
13690	-0.00104063	0.0931468
13729	-0.00113601	0.0913727
13768	-0.00115508	0.090347
13807	-0.00105971	0.0881042
13846	-0.00107878	0.0864197
13885	-0.00109786	0.0849613
13924	-0.00104063	0.0840686
13963	-0.00109786	0.0822711
14002	-0.000983412	0.080696
14041	-0.00104063	0.0793868
14080	-0.000945264	0.0784106
14119	-0.00107878	0.0771808
14158	-0.00104063	0.0756229
14197	-0.00104063	0.0745378
14236	-0.00107878	0.0734515
14275	-0.000868968	0.0728281
14314	-0.00104063	0.0712134
14353	-0.00102156	0.0701476
14392	-0.00109786	0.0691898
14431	1.49912	18.4447
14470	1.49923	9.81698
14509	1.49919	6.82179
14548	1.49931	5.28875
14587	1.4991	4.4038
14626	1.49939	3.89536
14665	1.49916	3.65619
14704	1.49919	3.37029
14743	1.49931	3.19722
14782	1.49914	3.11865
14821	1.49931	3.2313
14860	1.49933	3.40776
14899	1.49925	3.47787
14938	1.49921	3.43162
14977	1.49931	3.31606
15016	1.49921	3.40602
15055	1.49927	3.44605
15094	1.49923	3.43981
15133	1.49923	3.28621
15172	1.49921	3.31337
15211	1.49921	3.36946
15250	1.49939	3.38951
15289	1.49944	3.29638
15328	1.49942	3.24489
15367	1.49925	3.30094
15406	1.49929	3.32802
15445	1.49925	3.30354
15484	1.49937	3.1934
15523	1.49933	3.22552
15562	1.49929	3.25452
15601	1.49925	3.25568
15640	1.49929	3.14448
15679	1.49931	3.14159
15718	1.49912	3.16274
15757	1.49923	3.1557
15796	1.49929	3.07598
15835	1.49933	3.02588
15874	1.49929	3.05928
15913	1.49931	3.07894
15952	1.49919	3.05041
15991	1.49931	2.95943
16030	1.49929	2.97173
16069	1.49937	2.98325
16108	1.49942	2.97747
16147	1.49923	2.88683
16186	1.49916	2.88036
16225	-0.00102156	-1.11143
16264	-0.000983412	-0.317814
16303	-0.0012123	-0.152743
16342	-0.00111693	-0.0878817
16381	-0.00109786	-0.0541943
16420	-0.00105971	-0.0341818
16459	-0.00102156	-0.0196795
16498	-0.00105971	-0.0115409
16537	-0.00105971	-0.00522227
16576	-0.00092619	-0.000252162
16615	-0.00117415	0.00447299
16654	-0.00102156	0.00684566
16693	-0.00100249	0.00899196
16732	-0.00105971	0.0110705
16771	-0.00092619	0.0129909
16810	-0.00107878	0.0147157
16849	-0.000849894	0.0152111
16888	-0.00109786	0.0161077
16927	-0.000964338	0.0169066
16966	-0.000964338	0.0184396
17005	-0.00107878	0.0179207
17044	-0.00115508	0.0185712
17083	-0.00115508	0.0187458
17122	-0.000945264	0.0201852
17161	-0.00105971	0.0197286
17200	-0.00109786	0.0197316
17239	-0.00102156	0.019967
17278	-0.000945264	0.0204438
17317	-0.00102156	0.0207846
17356	-0.00104063	0.0205069
17395	-0.00105971	0.0205532
17434	-0.00102156	0.0205637
17473	-0.000964338	0.0214416
17512	-0.000907116	0.0206435
17551	-0.000983412	0.0208412
17590	-0.00107878	0.0208166
17629	-0.00109786	0.0216509
17668	-0.00102156	0.0209181
17707	-0.00104063	0.0209725
17746	-0.000945264	0.0209819
17785	-0.00109786	0.0212443
17824	-0.00105971	0.0212378
17863	-0.00107878	0.0208547
17902	-0.00100249	0.0210766
17941	-0.00115508	0.020996
17980	-0.00113601	0.0215201
18019	-0.00111693	0.020631
18058	-0.000983412	0.0207413
18097	-0.00109786	0.0206932
18136	-0.00109786	0.0213551
18175	-0.00102156	0.0204043
18214	-0.00102156	0.0203804
18253	-0.00105971	0.0203878
18292	-0.000983412	0.0206717
18331	-0.00100249	0.0204413
18370	-0.00119323	0.0200754
18409	-0.000964338	0.0201453
18448	-0.00113601	0.0201407
18487	-0.000964338	0.020603
18526	-0.00111693	0.0198146
18565	-0.000983412	0.0198759
18604	-0.00100249	0.0197453
18643	-0.00111693	0.0204373
18682	-0.00117415	0.0195762
18721	-0.00109786	0.0195207
18760	-0.000964338	0.0194921
18799	-0.00102156	0.0194987
18838	-0.00109786	0.0193872
18877	-0.000964338	0.0189201
18916	-0.00111693	0.0190932
18955	-0.000888042	0.0190084
18994	-0.00111693	0.0193611
19033	-0.000983412	0.018686
19072	-0.00109786	0.018682
19111	-0.000888042	0.0186476
19150	-0.00109786	0.0193307
19189	-0.00100249	0.0184958
19228	-0.00109786	0.0185841
19267	-0.000964338	0.0182685
19306	-0.000868968	0.0185403
19345	-0.00104063	0.0182704
19384	-0.000964338	0.0181114
19423	-0.00109786	0.0179845
19462	-0.00105971	0.0180961
19501	-0.00092619	0.0184995
19540	-0.000888042	0.0177815
19579	-0.000964338	0.0178851
19618	-0.00102156	0.0177863
19657	-0.00100249	0.0182663
19696	-0.000983412	0.0174972
19735	-0.000964338	0.0174933
19774	-0.000945264	0.0173819
19813	-0.00109786	0.0176906
19852	-0.00102156	0.0173134
19891	-0.000983412	0.0170768
19930	-0.00107878	0.0170864
19969	-0.000907116	0.0171425
20008	-0.000849894	0.0173158
20047	-0.00111693	0.0167086
20086	-0.00092619	0.0167129
20125	-0.00111693	0.0166417
20164	-0.000907116	0.017175
20203	-0.00100249	0.0165555
20242	-0.00100249	0.01656
20281	-0.00105971	0.0164487
20320	-0.00100249	0.0166951
20359	-0.000945264	0.0164308
20398	-0.000907116	0.0162446
20437	-0.000945264	0.0162931
20476	-0.00107878	0.0162128
20515	-0.000907116	0.0164092
20554	-0.00111693	0.0158241
20593	-0.00117415	0.0158692
20632	-0.00113601	0.0159237
20671	-0.000945264	0.0162599
20710	-0.00105971	0.0157102
20749	-0.00100249	0.0156626
20788	-0.000964338	0.0156626
20827	-0.000983412	0.0159092
20866	-0.000945264	0.0156612
20905	-0.00100249	0.0154358
20944	-0.000983412	0.0154065
20983	-0.000907116	0.0153918
21022	-0.000964338	0.015576
21061	-0.00107878	0.0152318
21100	-0.00092619	0.0152153
21139	-0.00113601	0.015129
21178	-0.00105971	0.0154652
21217	-0.000945264	0.0148528
21256	-0.000907116	0.0149119
21295	-0.000983412	0.0149058
21334	-0.000907116	0.0152185
21373	-0.00100249	0.0146579
21412	-0.00109786	0.0147595
21451	-0.000964338	0.0146095
21490	-0.000964338	0.0147339
21529	-0.00092619	0.0147368
21568	-0.00117415	0.0144401
21607	-0.00115508	0.0145288
21646	-0.00102156	0.0145302
21685	-0.00111693	0.0148432
21724	-0.00104063	0.0141593
21763	-0.00109786	0.0143641
21802	-0.00107878	0.0142508
21841	-0.000983412	0.0146038
21880	-0.000945264	0.0141505
21919	-0.00107878	0.0139613
21958	-0.00104063	0.0140826
21997	-0.000983412	0.0142084
22036	-0.00113601	0.0140821
22075	-0.00107878	0.0138833
22114	-0.000964338	0.0138584
22153	-0.00104063	0.0138122
22192	-0.000964338	0.0141841
22231	-0.00104063	0.0136637
22270	-0.00107878	0.0137816
22309	-0.00125045	0.0135782
22348	-0.00102156	0.0139125
22387	-0.00100249	0.0135373
22426	-0.00109786	0.0135302
22465	-0.00111693	0.0135437
22504	-0.00109786	0.0134913
22543	-0.000945264	0.0135788
22582	-0.00113601	0.0133459
22621	-0.00092619	0.0133714
22660	-0.00092619	0.0133829
22699	-0.00109786	0.0137618
22738	-0.000983412	0.0131577
22777	-0.00105971	0.0133044
22816	-0.00123138	0.0132577
22855	-0.000983412	0.0133835
22894	-0.00102156	0.0130054
22933	-0.00109786	0.0129506
22972	-0.00092619	0.0130373
23011	-0.00092619	0.0130722
23050	-0.000983412	0.0130389
23089	-0.000964338	0.0127637
23128	-0.00100249	0.0128813
23167	-0.00117415	0.0127349
23206	-0.00102156	0.0132283
23245	-0.00107878	0.0125837
23284	-0.00100249	0.0127646
23323	-0.000888042	0.0127016
23362	-0.00119323	0.013177
23401	-0.00113601	0.0126218
23440	-0.00100249	0.0125542
23479	-0.00104063	0.0125174
23518	-0.00115508	0.0126623
23557	-0.00105971	0.0125212
23596	-0.000945264	0.0124222
23635	-0.00109786	0.0124187
23674	-0.00102156	0.0124181
23713	-0.000964338	0.012695
23752	-0.00113601	0.0121936
23791	-0.00109786	0.0123557
23830	-0.00107878	0.0122161
23869	-0.000907116	0.0126428
23908	-0.00104063	0.0121922
23947	-0.00102156	0.01214
23986	-0.00105971	0.012094
24025	-0.000849894	0.0122563
24064	-0.00092619	0.0121545
24103	-0.000964338	0.0118953
24142	-0.00123138	0.011997
24181	-0.00115508	0.0119329
24220	-0.00102156	0.0121358
24259	-0.000945264	0.0118832
24298	-0.00109786	0.0118819
24337	-0.00102156	0.0119074
24376	-0.000964338	0.0122885
24415	-0.00105971	0.0118196
24454	-0.00100249	0.0117755
24493	-0.00107878	0.0118674
24532	-0.00100249	0.0118645
24571	-0.00092619	0.0118275
24610	-0.00113601	0.0115672
24649	-0.000983412	0.0116415
24688	-0.000907116	0.0116273
24727	-0.00104063	0.0118083
24766	-0.00111693	0.0114539
24805	-0.00109786	0.011514
24844	-0.00102156	0.0116242
24883	-0.00123138	0.011875
24922	-0.0012123	0.0114483
24961	-0.00113601	0.0114091
25000	-0.00100249	0.0114708
25039	-0.00102156	0.0115604
25078	-0.00117415	0.0114377
25117	-0.00104063	0.0113712
25156	-0.00107878	0.0114142
25195	-0.00107878	0.0113732
25234	-2.00081	-16.8693
25273	-2.0009	-9.81001
25312	-2.00077	-7.61691
25351	-2.00077	-6.55105
25390	-2.00083	-5.93949
25429	-2.00077	-5.54022
25468	-2.00092	-5.26953
25507	-2.00085	-5.11128
25546	-2.00079	-5.00889
25585	-2.00088	-4.97392
25624	-2.00092	-4.96235
25663	-2.0009	-4.99013
25702	-2.0009	-5.04764
25741	-2.00079	-5.12843
25780	-2.00086	-5.21305
25819	-2.00075	-5.31317
25858	-2.00073	-5.43147
25897	-2.00083	-5.55931
25936	-2.00071	-5.67922
25975	-2.00088	-5.79899
26014	-2.00077	-5.92152
26053	-2.00077	-6.04783
26092	-2.00085	-6.1837
26131	-0.000868968	2.92591
26170	-0.000945264	1.29329
26209	-0.00102156	0.799841
26248	-0.00113601	0.577979
26287	-0.00105971	0.450774
26326	-0.000964338	0.375117
26365	-0.00104063	0.32563
26404	-0.000945264	0.29073
26443	-0.000888042	0.262436
26482	-0.000945264	0.240241
26521	-0.00100249	0.22292
26560	-0.00104063	0.209185
26599	-0.00115508	0.197049
26638	-0.00113601	0.185281
26677	-0.00111693	0.175806
26716	-0.00092619	0.167864
26755	-0.000907116	0.161303
26794	-0.00102156	0.154939
26833	-0.00119323	0.148315
26872	-0.00102156	0.142767
26911	-0.00102156	0.139688
26950	-0.00102156	0.132913
26989	-0.00109786	0.128374
27028	-0.00100249	0.124314
27067	-0.00102156	0.120915
27106	-0.000888042	0.117248
27145	-0.00102156	0.113227
27184	-0.000849894	0.109973
27223	-0.000964338	0.107072
27262	-0.000868968	0.105125
27301	-0.000945264	0.101546
27340	-0.000945264	0.0991559
27379	-0.00107878	0.096778
27418	-0.000964338	0.0952444
27457	-0.000907116	0.0923188
27496	-0.000945264	0.0900079
27535	-0.00102156	0.0878483
27574	-0.00115508	0.086633
27613	-0.00115508	0.0844816
27652	-0.000888042	0.0825179
27691	-0.00102156	0.0807315
27730	-0.000945264	0.0792177
27769	-0.00107878	0.0781501
27808	-0.000964338	0.0759563
27847	-0.00113601	0.0744315
27886	-0.000964338	0.0730718
27925	-0.000964338	0.0724404
27964	-0.000888042	0.0706275
28003	-0.00100249	0.0692245
28042	-0.00104063	0.0680653
28081	-0.00105971	0.0674877
28120	-0.0012123	0.0661164
28159	-0.000945264	0.0647176
28198	-0.000964338	0.0637416
28237	-0.000868968	0.0627201
28276	-0.000964338	0.0621905
28315	-0.00102156	0.0606287
28354	-0.00100249	0.0598161
28393	-0.00113601	0.0589854
28432	-0.00109786	0.0587762
28471	-0.000907116	0.0572375
28510	-0.00092619	0.056415
28549	-0.00107878	0.0556399
28588	-0.00107878	0.0551887
28627	-0.00092619	0.0542435
28666	-0.00083082	0.0532215
28705	-0.00109786	0.0527228
28744	-0.00107878	0.0520946
28783	-0.000888042	0.0517089
28822	1.49921	17.2144
28861	1.49931	7.02069
28900	1.49933	4.72695
28939	1.49944	3.86424
28978	1.49929	3.45921
29017	1.49921	3.1166
29056	1.49929	3.01241
29095	1.49918	3.09264
29134	1.49923	3.1076
29173	1.49935	3.24403
29212	1.49921	3.35206
29251	1.49925	3.39782
29290	1.49923	3.30063
29329	1.49927	3.28037
29368	1.49906	3.31378
29407	1.49935	3.32077
29446	1.49929	3.26086
29485	1.49929	3.18916
29524	1.49929	3.21614
29563	1.49919	3.23053
29602	1.49946	3.22357
29641	1.49929	3.14318
29680	1.49944	3.14567
29719	1.49923	3.16309
29758	1.49927	3.16542
29797	1.49919	3.09923
29836	1.49923	3.06938
29875	1.49933	3.08446
29914	1.49918	3.09088
29953	1.49931	3.07093
29992	1.49942	3.02277
30031	1.49933	3.01834
30070	1.49925	3.01727
30109	1.49919	3.00797
30148	1.49946	2.94121
30187	1.49923	2.92976
30226	1.49921	2.92575
30265	1.49929	2.9201
30304	1.49931	2.86597
30343	1.49931	2.83392
30382	1.49925	2.84021
30421	1.49929	2.84952
30460	1.49921	2.82921
30499	1.49923	2.78011
30538	1.4995	2.78111
30577	1.49937	2.78132
30616	-0.00113601	-2.04492
30655	-0.00109786	-0.433922
30694	-0.00102156	-0.202187
30733	-0.00109786	-0.118713
30772	-0.00100249	-0.0769455
30811	-0.000964338	-0.0527277
30850	-0.000945264	-0.0373118
30889	-0.000964338	-0.0265143
30928	-0.00107878	-0.0186305
30967	-0.00115508	-0.0121334
31006	-0.00104063	-0.00833362
31045	-0.000811746	-0.00469779
31084	-0.000983412	-0.00167479
31123	-0.000983412	0.00139497
31162	-0.00107878	0.00245845
31201	-0.00113601	0.00412105
31240	-0.000964338	0.00548212
31279	-0.00109786	0.00716094
31318	-0.00111693	0.00754405
31357	-0.00111693	0.00826743
31396	-0.000945264	0.00903849
31435	-0.00102156	0.00979239
31474	-0.00105971	0.010674
31513	-0.000888042	0.0106434
31552	-0.000907116	0.0111602
31591	-0.000964338	0.0114327
31630	-0.00111693	0.0124407
31669	-0.00107878	0.0119628
31708	-0.00119323	0.012239
31747	-0.00107878	0.0122968
31786	-0.00092619	0.0130806
31825	-0.00111693	0.0129097
31864	-0.000964338	0.0128783
31903	-0.000907116	0.01307
31942	-0.00111693	0.0132689
31981	-0.00105971	0.0136418
32020	-0.000983412	0.0131736
32059	-0.00100249	0.0133902
32098	-0.00107878	0.0135056
32137	-0.000964338	0.0140094
32176	-0.00102156	0.0133211
32215	-0.00092619	0.0135194
32254	-0.00083082	0.0134734
32293	-0.00100249	0.0138803
32332	-0.00102156	0.0135856
32371	-0.00102156	0.0134057
32410	-0.00107878	0.0133385
32449	-0.000792671	0.0135659
32488	-0.000983412	0.0137067
32527	-0.00113601	0.0133202
32566	-0.00100249	0.0134962
32605	-0.00111693	0.0135249
32644	-0.000983412	0.0139815
32683	-0.00104063	0.0133215
32722	-0.000983412	0.0133504
32761	-0.00109786	0.0133813
32800	-0.00115508	0.0137119
32839	-0.00102156	0.0133229
32878	-0.000945264	0.0131517
32917	-0.000868968	0.0133075
32956	-0.00104063	0.01334
32995	-0.00109786	0.0133997
33034	-0.00102156	0.0129866
33073	-0.000945264	0.0131415
33112	-0.00115508	0.0130905
33151	-0.00109786	0.0135269
33190	-0.000945264	0.0128095
33229	-0.00102156	0.0128887
33268	-0.00126952	0.0129529
33307	-0.00100249	0.0132426
33346	-0.000983412	0.0128018
33385	-0.00100249	0.0126976
33424	-0.000983412	0.0128687
33463	-0.000945264	0.012852
33502	-0.00100249	0.0128644
33541	-0.000964338	0.0125933
33580	-0.000907116	0.0126754
33619	-0.00109786	0.0125458
33658	-0.00115508	0.0130474
33697	-0.00102156	0.0123892
33736	-0.000983412	0.0124543
33775	-0.00107878	0.0122904
33814	-0.00104063	0.0127851
33853	-0.00117415	0.0122815
33892	-0.00092619	0.0123489
33931	-0.000964338	0.0123073
33970	-0.00111693	0.0124804
34009	-0.00100249	0.0122578
34048	-0.00104063	0.0120201
34087	-0.000849894	0.0120381
34126	-0.00105971	0.0119384
34165	-0.000964338	0.0124017
34204	-0.00102156	0.0118262
34243	-0.00107878	0.0119754
34282	-0.000945264	0.0118458
34321	-0.00102156	0.012176
34360	-0.00102156	0.0118728
34399	-0.00102156	0.0117108
34438	-0.00102156	0.0116813
34477	-0.00102156	0.0119666
34516	-0.000983412	0.0117974
34555	-0.00109786	0.0115855
34594	-0.00113601	0.0115663
34633	-0.00107878	0.0114777
34672	-0.000907116	0.0118152
34711	-0.00104063	0.0113073
34750	-0.00113601	0.0113825
34789	-0.00100249	0.0113124
34828	-0.000964338	0.0117167
34867	-0.000868968	0.0112034
34906	-0.00092619	0.0111345
34945	-0.000964338	0.0112555
34984	-0.000907116	0.0114574
35023	-0.00102156	0.0112069
35062	-0.00100249	0.0110281
35101	-0.000983412	0.0110582
35140	-0.000907116	0.0110901
35179	-0.000849894	0.011343
35218	-0.000849894	0.0108651
35257	-0.00105971	0.0109141
35296	-0.00107878	0.010734
35335	-0.00111693	0.0111408
35374	-0.00111693	0.0107756
35413	-0.00107878	0.0107672
35452	-0.00092619	0.0107384
35491	-0.00102156	0.0108077
35530	-0.000907116	0.010752
35569	-0.00113601	0.0105569
35608	-0.000964338	0.0105042
35647	-0.000983412	0.0105758
35686	-0.00100249	0.0108505
35725	-0.000964338	0.0104025
35764	-0.00100249	0.0103961
35803	-0.000983412	0.0104379
35842	-0.000945264	0.0107904
35881	-0.00113601	0.0102875
35920	-0.00100249	0.0103131
35959	-0.00105971	0.0103262
35998	-0.000907116	0.0104367
36037	-0.00100249	0.010252
36076	-0.00102156	0.0100515
36115	-0.000907116	0.0102698
36154	-0.00115508	0.0102441
36193	-0.00092619	0.0103335
36232	-0.000888042	0.00988278
36271	-0.00102156	0.0100367
36310	-0.000945264	0.0100069
36349	-0.00109786	0.0104433
36388	-0.00105971	0.00981461
36427	-0.000907116	0.00991002
36466	-0.00105971	0.00997013
36505	-0.000792671	0.0100626
36544	-0.00104063	0.00998375
36583	-0.00104063	0.00973354
36622	-0.000983412	0.00994682
36661	-0.00109786	0.00987692
36700	-0.00107878	0.00986861
36739	-0.00123138	0.00956079
36778	-0.00119323	0.00953649
36817	-0.000983412	0.00959339
36856	-0.00102156	0.00986222
36895	-0.00107878	0.00946225
36934	-0.000945264	0.00954964
36973	-0.000945264	0.00949091
37012	-0.00109786	0.00970068
37051	-0.000983412	0.00957127
37090	-0.00107878	0.0093978
37129	-0.00104063	0.00939001
37168	-0.00107878	0.00966631
37207	-0.00104063	0.00950766
37246	-0.00102156	0.00931942
37285	-0.00100249	0.00930439
37324	-0.00102156	0.00932781
37363	-0.000964338	0.00967021
37402	-0.00107878	0.00921833
37441	-0.00100249	0.00923342
37480	-0.000983412	0.00914597
37519	-0.00102156	0.00934567
37558	-0.00117415	0.0092148
37597	-0.00105971	0.00903711
37636	-0.000983412	0.00905547
37675	-0.00109786	0.00906119
37714	-0.00105971	0.00920872
37753	-0.00119323	0.00893013
37792	-0.000964338	0.00903824
37831	-0.000945264	0.00900767
37870	-0.00102156	0.00923182
37909	-0.000888042	0.00887276
37948	-0.00117415	0.00892937
37987	-0.00119323	0.00893905
38026	-0.00102156	0.00910949
38065	-0.000945264	0.00887214
38104	-0.000907116	0.00883993
38143	-0.000907116	0.00889108
38182	-0.00104063	0.00891146
38221	-0.00100249	0.0089675
38260	-0.000907116	0.00877185
38299	-0.00105971	0.00874066
38338	-0.000945264	0.00888954
38377	-0.00105971	0.0089409
38416	-0.00113601	0.00855918
38455	-0.00115508	0.00865462
38494	-0.00105971	0.00863578
38533	-0.00109786	0.00894628
38572	-0.00113601	0.00860174
38611	-0.00105971	0.00851929
38650	-0.000983412	0.00857618
38689	-0.00104063	0.00864593
38728	-0.00113601	0.00861655
38767	-0.00100249	0.00841318
38806	-0.000964338	0.00849962
38845	-0.000983412	0.0085264
38884	-0.00100249	0.00866564
38923	-0.000945264	0.00846665
38962	-0.00107878	0.00845616
39001	-0.00111693	0.00847597
39040	-0.00104063	0.00879444
39079	-0.00104063	0.00839354
39118	-0.00092619	0.00832955
39157	-0.00102156	0.00831498
39196	-0.00117415	0.00841998
39235	-0.00104063	0.00836174
39274	-0.00100249	0.00814473
39313	-0.00107878	0.00821706
39352	-0.00105971	0.00821461
39391	-0.00105971	0.00844181
39430	-0.00102156	0.00806052
39469	-0.000888042	0.00816783
39508	-0.000983412	0.00812422
39547	-0.00100249	0.00839897
39586	-0.00119323	0.00813117
39625	-2.00092	-18.7656
39664	-2.00104	-9.39847
39703	-2.00079	-7.21603
39742	-2.00081	-6.28918
39781	-2.00079	-5.73951
39820	-2.00081	-5.41772
39859	-2.00075	-5.20054
39898	-2.00094	-5.07456
39937	-2.00075	-4.96782
39976	-2.00079	-4.89873
40015	-2.00069	-4.85421
40054	-2.0009	-4.85695
40093	-2.00083	-4.86155
40132	-2.00079	-4.87291
40171	-2.00065	-4.9112
40210	-2.00073	-4.95694
40249	-2.00083	-5.02385
40288	-2.00081	-5.07832
40327	-2.00073	-5.14862
40366	-2.00077	-5.2274
40405	-2.00079	-5.32198
40444	-2.00075	-5.40301
40483	-2.00079	-5.48991
40522	-0.000907116	3.99523
40561	-0.00102156	1.39377
40600	-0.00092619	0.832103
40639	-0.00105971	0.563765
40678	-0.00100249	0.423041
40717	-0.00100249	0.339175
40756	-0.00111693	0.285115
40795	-0.00105971	0.245193
40834	-0.00119323	0.217597
40873	-0.000792671	0.196409
40912	-0.000964338	0.181129
40951	-0.00109786	0.166283
40990	-0.00102156	0.154851
41029	-0.00105971	0.145251
41068	-0.00111693	0.137974
41107	-0.000888042	0.130395
41146	-0.00107878	0.123453
41185	-0.000964338	0.118176
41224	-0.00104063	0.113527
41263	-0.000983412	0.109503
41302	-0.000945264	0.10437
41341	-0.00104063	0.10078
41380	-0.00113601	0.0974913
41419	-0.00092619	0.095605
41458	-0.000907116	0.0914072
41497	-0.00109786	0.0885745
41536	-0.00092619	0.0861888
41575	-0.000888042	0.0848071
41614	-0.00092619	0.0819003
41653	-0.00100249	0.0793175
41692	-0.00107878	0.0774813
41731	-0.000983412	0.0762283
41770	-0.000983412	0.074605
41809	-0.00105971	0.0721099
41848	-0.000964338	0.0706608
41887	-0.00111693	0.0691277
41926	-0.00107878	0.068511
41965	-0.000964338	0.0660949
42004	-0.000849894	0.0651763
42043	-0.00109786	0.0637049
42082	-0.000792671	0.0632908
42121	-0.000983412	0.0613873
42160	-0.00107878	0.0599521
42199	-0.000907116	0.0589736
42238	-0.000945264	0.0583829
42277	-0.00115508	0.0574317
42316	-0.00104063	0.0557549
42355	-0.00105971	0.0551153
42394	-0.00113601	0.0541779
42433	-0.00102156	0.0539633
42472	-0.00105971	0.0523898
42511	-0.00100249	0.051555
42550	-0.00102156	0.0508353
42589	-0.000945264	0.0507467
42628	-0.00113601	0.0495003
42667	-0.00113601	0.0483895
42706	-0.00107878	0.0477491
42745	-0.000945264	0.047437
42784	-0.00102156	0.0468832
42823	-0.00105971	0.0456551
42862	-0.00105971	0.0451931
42901	-0.00104063	0.0446563
42940	-0.000945264	0.0445663
42979	-0.00111693	0.0433793
43018	-0.00105971	0.0429464
43057	-0.000888042	0.0422454
43096	-0.00126952	0.0424387
43135	-0.000983412	0.0414361
43174	-0.000983412	0.0407489
43213	1.49942	21.6723
43252	1.49942	6.55997
43291	1.49918	4.39601
43330	1.49923	3.55065
43369	1.49939	3.1423
43408	1.49937	3.12294
43447	1.49933	3.12665
43486	1.4995	3.19898
43525	1.49927	3.29633
43564	1.49939	3.33791
43603	1.49923	3.31552
43642	1.49921	3.25106
43681	1.49937	3.26394
43720	1.49927	3.26801
43759	1.49914	3.25177
43798	1.49921	3.17789
43837	1.49929	3.16065
43876	1.49931	3.1665
43915	1.49914	3.15728
43954	1.49923	3.10434
43993	1.49935	3.05738
44032	1.49927	3.06116
44071	1.49929	3.05861
44110	1.49927	3.0322
44149	1.49925	2.9738
44188	1.49929	2.97757
44227	1.49937	2.98193
44266	1.49923	2.97816
44305	1.4994	2.92874
44344	1.49929	2.9012
44383	1.49919	2.90118
44422	1.49931	2.89229
44461	1.49921	2.86404
44500	1.49935	2.82373
44539	1.49927	2.82482
44578	1.49935	2.82141
44617	1.49939	2.80947
44656	1.49927	2.76815
44695	1.49933	2.76206
44734	1.49923	2.7548
44773	1.49946	2.75197
44812	1.49918	2.71187
44851	1.49942	2.69518
44890	1.4994	2.69649
44929	1.49927	2.6918
44968	1.49931	2.6643
45007	-0.00100249	-5.78225
45046	-0.00113601	-0.566722
45085	-0.00115508	-0.246239
45124	-0.00104063	-0.142434
45163	-0.00104063	-0.0939585
45202	-0.00115508	-0.0657718
45241	-0.000964338	-0.0482391
45280	-0.00102156	-0.0356026
45319	-0.00105971	-0.0271853
45358	-0.00105971	-0.0206999
45397	-0.00104063	-0.0157511
45436	-0.00123138	-0.0115039
45475	-0.00100249	-0.00834259
45514	-0.00102156	-0.00610679
45553	-0.000888042	-0.00374027
45592	-0.00111693	-0.00189395
45631	-0.00117415	1.35051e-08
45670	-0.00109786	0.000608769
45709	-0.00100249	0.00197311
45748	-0.00100249	0.00284466
45787	-0.00107878	0.00435168
45826	-0.000983412	0.00441962
45865	-0.00125045	0.00490031
45904	-0.000849894	0.00568812
45943	-0.000945264	0.00644502
45982	-0.000945264	0.00670142
46021	-0.00104063	0.00681917
46060	-0.00104063	0.00720305
46099	-0.00104063	0.00758195
46138	-0.00102156	0.00835489
46177	-0.000983412	0.00795839
46216	-0.000888042	0.00817082
46255	-0.00105971	0.00827512
46294	-0.00107878	0.00919007
46333	-0.00109786	0.00862254
46372	-0.00105971	0.00877769
46411	-0.00104063	0.00893911
46450	-0.000964338	0.00938248
46489	-0.00113601	0.00931492
46528	-0.000888042	0.00914458
46567	-0.00104063	0.00923745
46606	-0.000964338	0.00952269
46645	-0.00105971	0.0098353
46684	-0.00102156	0.00935517
46723	-0.00109786	0.00956563
46762	-0.00107878	0.0095808
46801	-0.00100249	0.010035
46840	-0.00102156	0.0095982
46879	-0.00105971	0.00960041
46918	-0.000945264	0.00966258
46957	-0.00113601	0.0100432
46996	-0.00107878	0.00974665
47035	-0.00107878	0.0096864
47074	-0.00107878	0.00978836
47113	-0.000983412	0.00985786
47152	-0.000945264	0.0100822
47191	-0.00092619	0.00969466
47230	-0.00119323	0.00974868
47269	-0.00102156	0.00978071
47308	-0.00105971	0.0102572
47347	-0.00100249	0.00970561
47386	-0.00113601	0.00969457
47425	-0.000868968	0.00977366
47464	-0.000983412	0.0101887
47503	-0.00100249	0.00979398
47542	-0.00104063	0.00969502
47581	-0.000983412	0.00966063
47620	-0.00105971	0.00971213
47659	-0.00115508	0.00994763
47698	-0.000964338	0.00964168
47737	-0.000964338	0.00960531
47776	-0.00104063	0.00967307
47815	-0.00100249	0.0100085
47854	-0.00107878	0.00955543
47893	-0.00102156	0.00957262
47932	-0.00113601	0.0096188
47971	-0.00100249	0.00978549
48010	-0.000888042	0.00950487
48049	-0.00111693	0.00940054
48088	-0.000868968	0.00952329
48127	-0.00100249	0.00936433
48166	-0.00109786	0.00955351
48205	-0.00111693	0.00911537
48244	-0.00100249	0.00936414
48283	-0.00115508	0.00937599
48322	-0.000888042	0.00967108
48361	-0.00107878	0.00925582
48400	-0.00123138	0.00927982
48439	-0.00113601	0.00916747
48478	-0.00100249	0.00961687
48517	-0.00083082	0.00922528
48556	-0.00102156	0.00911483
48595	-0.000983412	0.00919603
48634	-0.00104063	0.00918595
48673	-0.00107878	0.00931732
48712	-0.00105971	0.00897126
48751	-0.000983412	0.00898906
48790	-0.000849894	0.00910552
48829	-0.00100249	0.00936802
48868	-0.00102156	0.00885179
48907	-0.00119323	0.00875523
48946	-0.00105971	0.0089261
48985	-0.00104063	0.00915753
49024	-0.00105971	0.00885184
49063	-0.00105971	0.00880729
49102	-0.00104063	0.00880098
49141	-0.00113601	0.00891326
49180	-0.000964338	0.0088664
49219	-0.00117415	0.00854107
49258	-0.00092619	0.0088041
49297	-0.000964338	0.00864867
49336	-0.00104063	0.00898895
49375	-0.000888042	0.00849289
49414	-0.00113601	0.00866683
49453	-0.00125045	0.00867557
49492	-0.000868968	0.00886525
49531	-0.00109786	0.00848671
49570	-0.00117415	0.00840612
49609	-0.000983412	0.00853966
49648	-0.000964338	0.00832767
49687	-0.000964338	0.00867123
49726	-0.000888042	0.00838583
49765	-0.00115508	0.00837158
49804	-0.00102156	0.0084666
49843	-0.0012123	0.0086221
49882	-0.00104063	0.00826731
49921	-0.000888042	0.00833538
49960	-0.000983412	0.00835247
49999	-0.00104063	0.00858978
50038	-0.000983412	0.00822246
50077	-0.00102156	0.00827374
50116	-0.000888042	0.00833864
50155	-0.00100249	0.0084928
50194	-0.00115508	0.00832047
50233	-0.00109786	0.00812509
50272	-0.000868968	0.00824014
50311	-0.00109786	0.00805522
50350	-0.000945264	0.00844057
50389	-0.00111693	0.00805452
50428	-0.00107878	0.00807644
50467	-0.000964338	0.00810763
50506	-0.00111693	0.00833228
50545	-0.00119323	0.00825829
50584	-0.00104063	0.00791622
50623	-0.00092619	0.00802692
50662	-0.00107878	0.00806202
50701	-0.00107878	0.00804965
50740	-0.00105971	0.00795444
50779	-0.00113601	0.00803719
50818	-0.00111693	0.00791704
50857	-0.00107878	0.00813481
50896	-0.000983412	0.00784829
50935	-0.00100249	0.00773184
50974	-0.000983412	0.00790277
51013	-0.000888042	0.00815865
51052	-0.000907116	0.00787356
51091	-0.000945264	0.00782252
51130	-0.000983412	0.00776627
51169	-0.000964338	0.00795108
51208	-0.000983412	0.00783749
51247	-0.00107878	0.00768599
51286	-0.000945264	0.00777942
51325	-0.00113601	0.00773366
51364	-0.00092619	0.00795723
51403	-0.000888042	0.00765615
51442	-0.00102156	0.0076251
51481	-0.00104063	0.00782832
51520	-0.000868968	0.00792772
51559	-0.000907116	0.00756599
51598	-0.000945264	0.00753508
51637	-0.00105971	0.00758638
51676	-0.000945264	0.00773566
51715	-0.00109786	0.00754568
51754	-0.00119323	0.00753036
51793	-0.00113601	0.00750242
51832	-0.00100249	0.00760687
51871	-0.00105971	0.00768826
51910	-0.00111693	0.00735687
51949	-0.00102156	0.00745034
51988	-0.0012123	0.00747845
52027	-0.000983412	0.0076393
52066	-0.00102156	0.00735615
52105	-0.000983412	0.00734857
52144	-0.00104063	0.0074022
52183	-0.00104063	0.00751136
52222	-0.000983412	0.00745005
52261	-0.00109786	0.00728242
52300	-0.00113601	0.00733462
52339	-0.000945264	0.00724303
52378	-0.000907116	0.0075462
52417	-0.00102156	0.00722157
52456	-0.000907116	0.00731964
52495	-0.000811746	0.00714715
52534	-0.00102156	0.00735075
52573	-0.00107878	0.00717392
52612	-0.000983412	0.0073193
52651	-0.00111693	0.00720726
52690	-0.000964338	0.00738637
52729	-0.00100249	0.00715197
52768	-0.00100249	0.00720652
52807	-0.000945264	0.0071401
52846	-0.000983412	0.00716451
52885	-0.00117415	0.00732819
52924	-0.000945264	0.00700127
52963	-0.00119323	0.00698951
53002	-0.000907116	0.00695035
53041	-0.00107878	0.00726245
53080	-0.00105971	0.00688692
53119	-0.00109786	0.00693132
53158	-0.000983412	0.00699559
53197	-0.000888042	0.00714098
53236	-0.000983412	0.00693082
53275	-0.00104063	0.00685544
53314	-0.00111693	0.00685806
53353	-0.00102156	0.00707577
53392	-0.000907116	0.0069981
53431	-0.00115508	0.00679652
53470	-0.00107878	0.00680001
53509	-0.000888042	0.00673334
53548	-0.00107878	0.00698847
53587	-0.000983412	0.00682488
53626	-0.00104063	0.00676004
53665	-0.00115508	0.00675301
53704	-0.00100249	0.00690583
53743	-0.000983412	0.00682992
53782	-0.000983412	0.00662485
53821	-0.00111693	0.00675194
53860	-0.00100249	0.00688989
53899	-0.000964338	0.00679794
53938	-0.000964338	0.00664138
53977	-0.000964338	0.00673249
54016	-2.00073	-27.255
54055	-2.00094	-9.95684
54094	-2.00098	-7.3645
54133	-2.00086	-6.374
54172	-2.00085	-5.87198
54211	-2.00081	-5.58129
54250	-2.00085	-5.41446
54289	-2.00077	-5.29892
54328	-2.00079	-5.23279
54367	-2.00079	-5.18914
54406	-2.00071	-5.17623
54445	-2.00081	-5.16539
54484	-2.00088	-5.17793
54523	-2.00075	-5.18775
54562	-2.00088	-5.22829
54601	-2.00073	-5.25813
54640	-2.00088	-5.28842
54679	-2.00077	-5.32592
54718	-2.00065	-5.38175
54757	-2.00086	-5.43203
54796	-2.0009	-5.48199
54835	-2.00073	-5.54504
54874	-2.00075	-5.61163
54913	-0.000907116	7.58945
54952	-0.00105971	1.61158
54991	-0.00109786	0.899108
55030	-0.00092619	0.606021
55069	-0.00111693	0.446766
55108	-0.00102156	0.347313
55147	-0.000945264	0.283525
55186	-0.000983412	0.239914
55225	-0.00102156	0.209222
55264	-0.00115508	0.186039
55303	-0.00107878	0.167263
55342	-0.00104063	0.15325
55381	-0.000907116	0.141741
55420	-0.000964338	0.133235
55459	-0.000964338	0.12386
55498	-0.00107878	0.116878
55537	-0.000964338	0.110897
55576	-0.00102156	0.106547
55615	-0.00109786	0.101102
55654	-0.000849894	0.0969333
55693	-0.000983412	0.092814
55732	-0.00104063	0.0899152
55771	-0.00100249	0.0865879
55810	-0.00092619	0.0831129
55849	-0.00100249	0.0805622
55888	-0.00107878	0.078261
55927	-0.00100249	0.0765849
55966	-0.00092619	0.0736098
56005	-0.00100249	0.0717167
56044	-0.000983412	0.0699378
56083	-0.000983412	0.0693339
56122	-0.000907116	0.0667237
56161	-0.000983412	0.0649024
56200	-0.00104063	0.0634446
56239	-0.000983412	0.0627361
56278	-0.000964338	0.0612038
56317	-0.00104063	0.0593494
56356	-0.00100249	0.058244
56395	-0.000983412	0.0573244
56434	-0.00113601	0.0564826
56473	-0.00092619	0.0548178
56512	-0.00113601	0.0540264
56551	-0.00119323	0.0529251
56590	-0.00104063	0.0528377
56629	-0.000983412	0.0512826
56668	-0.00104063	0.0502865
56707	-0.00102156	0.0496104
56746	-0.00104063	0.0490013
56785	-0.000983412	0.0480595
56824	-0.000983412	0.04673
56863	-0.00111693	0.0462936
56902	-0.00113601	0.0458182
56941	-0.00111693	0.0454052
56980	-0.000945264	0.0440662
57019	-0.000945264	0.0437065
57058	-0.000945264	0.0430609
57097	-0.000983412	0.0430079
57136	-0.000945264	0.0418141
57175	-0.00115508	0.0411552
57214	-0.00109786	0.0408254
57253	-0.00102156	0.0406975
57292	-0.00104063	0.0399742
57331	-0.0012123	0.0392536
57370	-0.00107878	0.0387836
57409	-0.00100249	0.0383158
57448	-0.00109786	0.0380228
57487	-0.00100249	0.0371757
57526	-0.00123138	0.0368146
57565	-0.00113601	0.036498
57600	-0.000907116	0.0360667