File: Data_29_Experiment/CA_001_C01.txt
time/s	Ewe/V	<I>/mA
1	1.49941	263.141
37	1.49953	8.53778
73	1.49959	7.05078
109	1.49953	6.69204
145	1.49938	6.69837
181	1.49943	6.92712
217	1.49955	7.29576
253	1.49957	7.75173
289	1.49943	8.21793
325	1.49949	8.68573
361	1.4994	9.12888
397	1.49966	9.53533
433	1.49955	9.8774
469	1.49953	10.1707
505	1.49936	10.428
541	1.49981	10.647
577	1.49957	10.8235
612.952	-0.000954849	-3.20428
648.952	-0.000802256	1.22458
684.952	-0.00082133	1.31438
720.952	-0.000916701	0.921876
756.952	-0.000973923	0.758245
792.952	-0.000840404	0.670618
828.952	-0.000992997	0.602816
864.952	-0.000935775	0.558458
900.952	-0.000954849	0.518849
936.952	-0.000935775	0.482703
972.952	-0.000764108	0.440182
1008.95	-0.000745034	0.411082
1044.95	-0.000859479	0.386222
1080.95	-0.000992997	0.365091
1116.95	-0.00101207	0.338374
1152.95	-0.000897627	0.324366
1188.95	-0.000897627	0.312318
1224.95	-0.000897627	0.301324
1260.95	-0.000954849	0.28315
1296.95	-0.000973923	0.275412
1332.95	-0.00082133	0.26862
1368.95	-0.000935775	0.263441
1404.95	-0.00082133	0.249974
1440.95	-0.000916701	0.245664
1476.95	-0.000916701	0.242002
1512.95	-0.000897627	0.238583
1548.95	-0.000878553	0.229704
1584.95	-0.000916701	0.226577
1620.95	-0.000916701	0.224116
1656.95	-0.000916701	0.221118
1692.95	-0.000859479	0.213742
1728.95	-0.000992997	0.211883
1764.95	-0.00101207	0.210399
1800.95	-0.000745034	0.208257
1836.95	-0.000878553	0.201675
1872.95	-0.00082133	0.200086
1908.95	-0.000859479	0.198907
1944.95	-0.000859479	0.197761
1980.95	-0.000878553	0.191963
2016.95	-0.000992997	0.190131
2052.95	-0.000916701	0.189362
2088.95	-0.000878553	0.188618
2124.95	-0.000783182	0.183557
2160.95	-0.00106929	0.181943
2196.95	-0.000973923	0.181607
2232.95	-0.000973923	0.180713
2268.95	-0.000840404	0.176035
2304.95	-0.000897627	0.174402
2340.95	-0.000954849	0.174055
2376.95	-0.000897627	0.173478
2412.95	-0.000840404	0.169619
2448.95	-0.000783182	0.168119
2484.95	-0.000897627	0.167745
2520.95	-0.000897627	0.167124
2556.95	-0.000897627	0.163301
2592.95	-0.000897627	0.161329
2628.95	-0.000916701	0.161159
2664.95	-0.00106929	0.160488
2700.95	-0.00101207	0.156903
2736.95	-0.00072596	0.154571
2772.95	-0.00082133	0.153781
2808.95	-0.000878553	0.152848
2844.95	-0.000916701	0.149494
2880.95	-0.000687812	0.147023
2916.95	-0.000878553	0.146251
2952.95	-0.000840404	0.145528
2988.95	-0.000840404	0.14315
3024.95	-0.000916701	0.140885
3060.95	-0.000973923	0.140518
3096.95	-0.000992997	0.139868
3132.95	-0.000916701	0.137398
3168.95	-0.00106929	0.134964
3204.95	-0.00082133	0.134803
3240.95	-0.000935775	0.134349
3276.95	-0.000840404	0.132401
3312.95	-0.00101207	0.129435
3348.95	-0.000916701	0.129124
3384.95	-0.000954849	0.128629
3420.95	-0.000973923	0.126877
3456.95	-0.00103115	0.124305
3492.95	-0.000745034	0.124104
3528.95	-0.000840404	0.123422
3564.95	-0.000745034	0.121668
3600.95	-0.000992997	0.118779
3636.95	-0.000916701	0.118825
3672.95	-0.00101207	0.118225
3708.95	-0.000935775	0.116768
3744.95	-0.000935775	0.11385
3780.95	-0.00082133	0.113779
3816.95	-0.000878553	0.113025
3852.95	-0.000840404	0.111755
3888.95	-0.00082133	0.109065
3924.95	-0.000916701	0.108696
3960.95	-0.000954849	0.108234
3996.95	-0.000954849	0.107172
4032.95	-0.00103115	0.104677
4068.95	-0.000973923	0.104239
4104.95	-0.000954849	0.103598
4140.95	-0.000973923	0.102565
4176.95	-0.000954849	0.0998659
4212.95	-0.00112652	0.0996873
4248.95	-0.00103115	0.0990944
4284.95	-0.00101207	0.0984094
4320.95	-0.000916701	0.0961256
4356.95	-0.000897627	0.0961342
4392.95	-0.000802256	0.0959875
4428.95	-0.000954849	0.0955855
4464.95	-0.000935775	0.0931779
4500.95	-0.000992997	0.0932165
4536.95	-0.000802256	0.0929223
4572.95	-0.000916701	0.0924268
4608.95	-0.000783182	0.0902922
4644.95	-0.000859479	0.0901409
4680.95	-0.000859479	0.0897121
4716.95	-0.000916701	0.0892316
4752.95	-0.000878553	0.0869486
4788.95	-0.000802256	0.0867299
4824.95	-0.000878553	0.0862667
4860.95	-0.000840404	0.0858859
4896.95	-0.000935775	0.0838278
4932.95	-0.000840404	0.0837148
4968.95	-0.000897627	0.0833304
5004.95	-0.000935775	0.0831561
5040.95	-0.00072596	0.0810283
5076.95	-0.000840404	0.080792
5112.95	-0.000992997	0.080562
5148.95	-0.000916701	0.0805969
5184.95	-0.000878553	0.078739
5220.95	-0.000973923	0.0785682
5256.95	-0.00082133	0.0782091
5292.95	-0.000973923	0.0780987
5328.95	-0.00108837	0.076343
5364.95	-0.000973923	0.0761987
5400.95	-0.000897627	0.075915
5436.95	-0.00082133	0.0758255
5472.95	-0.00105022	0.0740523
5508.95	-0.000954849	0.0740348
5544.95	-0.00103115	0.0745107
5580.95	-0.000954849	0.0745323
5616.95	-0.00101207	0.0731172
5652.95	-0.000954849	0.0728079
5688.95	-0.00101207	0.072593
5724.95	-0.00110744	0.0723785
5760.95	-0.000859479	0.0706998
5796.95	-0.000935775	0.0702543
5832.95	-0.000878553	0.0700345
5868.95	-0.000687812	0.0698864
5904.95	-0.000859479	0.0683315
5940.95	-0.000840404	0.0679952
5976.95	-0.000954849	0.0677166
6012.95	-0.000973923	0.0677377
6048.95	-0.000916701	0.0663977
6084.95	-0.000954849	0.0659167
6120.95	-0.000992997	0.0657353
6156.95	-0.000973923	0.0655918
6192.95	-0.000840404	0.0644152
6228.95	-0.000649663	0.0639663
6264.95	-0.000783182	0.0638616
6300.95	-0.000745034	0.0638567
6336.95	-0.000802256	0.0627934
6372.95	-0.000992997	0.0623649
6408.95	-0.000916701	0.0622736
6444.95	-0.000859479	0.0621291
6480.95	-0.000859479	0.0613966
6516.95	-0.00103115	0.0607333
6552.95	-0.00110744	0.0606897
6588.95	-0.00082133	0.0604813
6624.95	-0.000992997	0.0598351
6660.95	-0.000802256	0.0592775
6696.95	-0.000973923	0.0591289
6732.95	-0.000954849	0.0591093
6768.95	-0.00082133	0.0585479
6804.95	-0.00082133	0.0578834
6840.95	-0.000935775	0.057908
6876.95	-0.000878553	0.0579398
6912.95	-0.000992997	0.0573728
6948.95	-0.000878553	0.0567564
6984.95	-0.000973923	0.0568576
7020.95	-0.00082133	0.0568462
7056.95	-0.000954849	0.0563683
7092.95	-0.000954849	0.0556403
7128.95	-0.000859479	0.0555998
7164.95	-0.000897627	0.0555724
7200.95	-0.000973923	0.055177
7236.95	-0.00101207	0.0545826
7272.95	-0.000992997	0.0546137
7308.95	-0.00101207	0.0544913
7344.95	-0.000783182	0.054274
7380.95	-0.000992997	0.0534496
7416.95	-0.00082133	0.0534654
7452.95	-0.000973923	0.0535737
7488.95	-0.000973923	0.0534029
7524.95	-0.000916701	0.0524143
7560.95	-0.000916701	0.0525716
7596.95	-0.000954849	0.0526199
7632.95	-0.000840404	0.052504
7668.95	-0.000916701	0.0512413
7704.95	-0.000687812	0.0515483
7740.95	-0.00101207	0.0514623
7776.95	-0.000992997	0.0513765
7812.95	-0.00101207	0.0506578
7848.95	-0.000935775	0.0507358
7884.95	-0.000802256	0.0506503
7920.95	-0.000745034	0.0506315
7956.95	-0.000840404	0.0498934
7992.95	-0.000802256	0.0499373
8028.95	-0.000802256	0.049877
8064.95	-0.000935775	0.0498726
8100.95	-0.00082133	0.0490281
8136.95	-0.000859479	0.0490934
8172.95	-0.000897627	0.0491302
8208.95	-0.000783182	0.0492775
8244.95	-0.000935775	0.048335
8280.95	-0.00108837	0.0485445
8316.95	-0.000973923	0.0484595
8352.95	-0.000840404	0.0485716
8388.95	-0.000783182	0.0477389
8424.95	-0.000973923	0.0478084
8460.95	-0.000935775	0.0477606
8496.95	-0.00101207	0.04775
8532.95	-0.000916701	0.0470094
8568.95	-0.000706886	0.0470416
8604.95	-0.000916701	0.0468939
8640.95	-0.000745034	0.047031
8676.95	-0.000935775	0.0462438
8712.95	-0.000916701	0.0462932
8748.95	-0.000992997	0.046304
8784.95	-0.000973923	0.0462989
8820.95	-0.000878553	0.0466022
8856.95	-0.000935775	0.0466516
8892.95	-0.000935775	0.046544
8928.95	-0.000859479	0.0467062
8964.95	-0.00082133	0.0459491
9000.95	-0.000992997	0.0459568
9036.95	-0.000878553	0.0458208
9072.95	-0.000859479	0.0460151
9108.95	-0.000973923	0.0451981
9144.95	-0.000935775	0.0451456
9180.95	-0.00082133	0.0450446
9216.95	-0.000897627	0.0453112
9252.95	-0.000954849	0.0446197
9288.95	-0.000935775	0.044648
9324.95	-0.000916701	0.044729
9360.95	-0.000916701	0.0446242
9396.95	-0.000992997	0.0440898
9432.95	-0.000878553	0.0440966
9468.95	-0.000935775	0.0439109
9504.95	-0.000916701	0.0440596
9540.95	-0.000973923	0.0434212
9576.95	-0.000840404	0.0433998
9612.95	-2.00082	-106.804
9648.96	-2.00103	-29.1039
9684.96	-2.00091	-17.5267
9720.96	-2.0008	-13.1986
9756.96	-2.00093	-11.1422
9792.96	-2.00099	-10.047
9828.96	-2.00097	-9.33559
9864.96	-2.00097	-8.84179
9900.96	-2.00107	-8.46764
9936.96	-2.00084	-8.17571
9972.96	-2.00087	-7.93314
10009	-2.00099	-7.74714
10045	-2.00103	-7.59374
10081	-2.00093	-7.48615
10117	-2.00082	-7.39251
10153	-2.00093	-7.31895
10189	-2.00082	-7.2686
10225	-2.00091	-7.2435
10261	-2.00082	-7.22728
10297	-2.00084	-7.22013
10333	-2.00097	-7.22815
10369	-2.00103	-7.24591
10405	-2.00101	-7.25866
10441	-2.00086	-7.27827
10477	-2.00082	-7.31106
10513	-0.000916701	11.3303
10549	-0.000783182	3.68751
10585	-0.000935775	2.73877
10621	-0.00082133	2.37877
10657	-0.00082133	2.20679
10693	-0.000954849	2.10174
10729	-0.00106929	1.97842
10765	-0.000935775	1.88717
10801	-0.000935775	1.82794
10837	-0.000897627	1.7867
10873	-0.000802256	1.7235
10909	-0.000878553	1.68
10945	-0.00103115	1.64994
10981	-0.000916701	1.61885
11017	-0.00112652	1.56427
11053	-0.00082133	1.52258
11089	-0.000878553	1.49319
11125	-0.000954849	1.46982
11161	-0.000935775	1.42497
11197	-0.00072596	1.39096
11233	-0.000916701	1.3641
11269	-0.000840404	1.34172
11305	-0.000916701	1.3001
11341	-0.000916701	1.26882
11377	-0.000859479	1.24407
11413	-0.000992997	1.22391
11449	-0.000802256	1.18713
11485	-0.000954849	1.15968
11521	-0.000878553	1.13658
11557	-0.000802256	1.11822
11593	-0.000954849	1.08527
11629	-0.000859479	1.06076
11665	-0.000973923	1.03943
11701	-0.00103115	1.02189
11737	-0.000878553	0.991929
11773	-0.000897627	0.969766
11809	-0.00110744	0.949445
11845	-0.000935775	0.934019
11881	-0.000897627	0.907086
11917	-0.000859479	0.886411
11953	-0.000935775	0.868059
11989	-0.000973923	0.853288
12025	-0.00082133	0.828481
12061	-0.00108837	0.809831
12097	-0.000916701	0.792243
12133	-0.000897627	0.778253
12169	-0.000802256	0.755233
12205	-0.000897627	0.737
12241	-0.000783182	0.719454
12277	-0.00106929	0.704913
12313	-0.000878553	0.682904
12349	-0.000897627	0.665216
12385	-0.000973923	0.648064
12421	-0.000973923	0.633652
12457	-0.000916701	0.612059
12493	-0.00103115	0.594464
12529	-0.000954849	0.577528
12565	-0.000954849	0.56311
12601	-0.000916701	0.543077
12637	-0.000878553	0.527341
12673	-0.00072596	0.512078
12709	-0.000954849	0.499418
12745	-0.00082133	0.479616
12781	-0.000897627	0.464527
12817	-0.00110744	0.449243
12853	-0.000916701	0.435516
12889	-0.000897627	0.41729
12925	-0.000992997	0.401976
12961	-0.00082133	0.387824
12997	-0.000916701	0.378369
13033	-0.000935775	0.36696
13069	-0.00105022	0.359891
13105	-0.000859479	0.353811
13141	-0.000935775	0.348877
13177	-0.000954849	0.339941
13213	1.49951	69.5097
13249	1.4994	40.2018
13285	1.49947	28.6788
13321	1.4996	22.8088
13357	1.49945	19.3315
13393	1.49928	16.9826
13429	1.49964	15.2942
13465	1.49947	13.9857
13501	1.49928	12.9555
13537	1.49949	12.1117
13573	1.49951	11.4114
13609	1.4993	10.7999
13645	1.49978	10.2729
13681	1.49943	9.80295
13717	1.49964	9.39567
13753	1.49957	9.0191
13789	1.49959	8.69153
13825	-0.00072596	-1.45161
13861	-0.000878553	0.406511
13897	-0.000973923	0.551435
13933	-0.000687812	0.437019
13969	-0.000840404	0.348816
14005	-0.000973923	0.292153
14041	-0.000973923	0.247896
14077	-0.000802256	0.221727
14113	-0.000802256	0.20191
14149	-0.000764108	0.186746
14185	-0.000783182	0.168762
14221	-0.000764108	0.159583
14257	-0.000878553	0.15245
14293	-0.000916701	0.148493
14329	-0.000764108	0.139933
14365	-0.00103115	0.136567
14401	-0.000840404	0.132837
14437	-0.000935775	0.130287
14473	-0.000992997	0.122901
14509	-0.000859479	0.119402
14545	-0.00101207	0.116777
14581	-0.000916701	0.115423
14617	-0.000916701	0.109807
14653	-0.00103115	0.107225
14689	-0.000973923	0.104899
14725	-0.00116466	0.103745
14761	-0.000802256	0.0987254
14797	-0.000897627	0.0964027
14833	-0.000973923	0.0945529
14869	-0.000992997	0.0939557
14905	-0.000840404	0.0894937
14941	-0.000992997	0.0875137
14977	-0.000878553	0.0860993
15013	-0.000954849	0.0859392
15049	-0.00101207	0.0824898
15085	-0.000935775	0.0805037
15121	-0.00101207	0.0798496
15157	-0.000783182	0.079631
15193	-0.00105022	0.0768979
15229	-0.00108837	0.0754829
15265	-0.000916701	0.0750424
15301	-0.000706886	0.0750154
15337	-0.000840404	0.0727474
15373	-0.00110744	0.0710101
15409	-0.000992997	0.0707539
15445	-0.000878553	0.070678
15481	-0.000973923	0.0688261
15517	-0.000916701	0.0670674
15553	-0.000973923	0.0665587
15589	-0.000954849	0.0664127
15625	-0.00101207	0.0651732
15661	-0.00082133	0.0634232
15697	-0.000954849	0.0630433
15733	-0.000935775	0.062774
15769	-0.000840404	0.0616196
15805	-0.000954849	0.059996
15841	-0.000916701	0.059948
15877	-0.000954849	0.0600376
15913	-0.000935775	0.0592882
15949	-0.00082133	0.0577077
15985	-0.000802256	0.0577532
16021	-0.000878553	0.0578478
16057	-0.000954849	0.0573641
16093	-0.000935775	0.0557958
16129	-0.000764108	0.0559456
16165	-0.000973923	0.0559506
16201	-0.000916701	0.0556751
16237	-0.000897627	0.053886
16273	-0.000916701	0.0540365
16309	-0.000878553	0.0542111
16345	-0.000783182	0.0542924
16381	-0.000954849	0.052493
16417	-0.000935775	0.0524399
16453	-0.00101207	0.0525345
16489	-0.000878553	0.0528924
16525	-0.000897627	0.0509173
16561	-0.000897627	0.0511298
16597	-0.000954849	0.0511611
16633	-0.000783182	0.0514594
16669	-0.000878553	0.0491811
16705	-0.00103115	0.0493423
16741	-0.000802256	0.049429
16777	-0.000935775	0.0497734
16813	-0.000802256	0.0478664
16849	-0.000916701	0.0479955
16885	-0.000935775	0.0479692
16921	-0.000840404	0.0485598
16957	-0.00108837	0.0465009
16993	-0.000878553	0.0467647
17029	-0.000973923	0.0467582
17065	-0.000897627	0.0472691
17101	-0.00106929	0.0452428
17137	-0.000897627	0.0455209
17173	-0.000783182	0.0456362
17209	-0.000954849	0.0464512
17245	-0.00110744	0.0446792
17281	-0.000954849	0.0446737
17317	-0.000859479	0.0448866
17353	-0.000764108	0.0458641
17389	-0.000764108	0.0439502
17425	-0.000954849	0.044178
17461	-0.000859479	0.0441375
17497	-0.00101207	0.044981
17533	-0.000878553	0.0431549
17569	-0.000840404	0.0433462
17605	-0.000916701	0.0432916
17641	-0.00103115	0.0441635
17677	-0.000954849	0.0422396
17713	-0.000954849	0.0423356
17749	-0.000897627	0.0421839
17785	-0.000897627	0.043042
17821	-0.000935775	0.0413269
17857	-0.00103115	0.0412812
17893	-0.00072596	0.0411957
17929	-0.000954849	0.0420263
17965	-0.000973923	0.0403999
18001	-0.00106929	0.0405051
18037	-0.000935775	0.0405097
18073	-0.000706886	0.041351
18109	-0.00101207	0.0397889
18145	-0.000897627	0.0398642
18181	-0.000916701	0.0399161
18217	-0.000954849	0.0408165
18253	-0.000954849	0.0392651
18289	-0.000783182	0.0393334
18325	-0.000802256	0.0393801
18361	-0.000916701	0.0402345
18397	-0.00105022	0.0388963
18433	-0.000859479	0.0390566
18469	-0.00082133	0.0390103
18505	-0.000859479	0.0395839
18541	-0.000992997	0.0382828
18577	-0.000706886	0.0382591
18613	-0.000878553	0.0381753
18649	-0.00110744	0.038888
18685	-0.00105022	0.0377324
18721	-0.000973923	0.0374873
18757	-0.00082133	0.0374779
18793	-0.000802256	0.0381398
18829	-0.000897627	0.0369625
18865	-0.000973923	0.0369771
18901	-0.00082133	0.0369708
18937	-0.000859479	0.0375082
18973	-0.000973923	0.0365157
19009	-0.00082133	0.0362699
19045	-0.000878553	0.0362701
19081	-0.000878553	0.0369192
19117	-0.000897627	0.0361597
19153	-0.000916701	0.0356879
19189	-0.000745034	0.0358046
19225	-0.000802256	0.0363955
19261	-0.00082133	0.0356128
19297	-0.000840404	0.0352111
19333	-0.000745034	0.0351233
19369	-0.000992997	0.0357087
19405	-0.00103115	0.035222
19441	-0.000878553	0.034833
19477	-0.000973923	0.0347692
19513	-0.000935775	0.0352166
19549	-0.000935775	0.0348888
19585	-0.000916701	0.034316
19621	-0.000802256	0.0344027
19657	-0.000916701	0.0346485
19693	-0.000897627	0.0344537
19729	-0.00103115	0.0338989
19765	-0.000840404	0.0340013
19801	-0.000783182	0.0343428
19837	-0.000897627	0.0342261
19873	-0.000897627	0.0334208
19909	-0.000802256	0.0335773
19945	-0.00101207	0.0338185
19981	-0.000878553	0.0336976
20017	-0.000954849	0.0330672
20053	-0.00082133	0.0331173
20089	-0.000859479	0.0333552
20125	-0.000878553	0.0333451
20161	-0.000935775	0.0325992
20197	-0.000897627	0.0326618
20233	-0.000897627	0.0328605
20269	-0.000878553	0.033001
20305	-0.00072596	0.0322289
20341	-0.000916701	0.0323746
20377	-0.00103115	0.0326416
20413	-0.000954849	0.0327675
20449	-0.000954849	0.0319272
20485	-0.000878553	0.0320537
20521	-0.000897627	0.0322251
20557	-0.000802256	0.0324015
20593	-0.000973923	0.031618
20629	-0.000992997	0.0315857
20665	-0.000878553	0.0317411
20701	-0.00082133	0.0321704
20737	-0.000897627	0.0312351
20773	-0.000935775	0.0313607
20809	-0.000840404	0.0315022
20845	-0.000859479	0.0318975
20881	-0.000935775	0.0310752
20917	-0.000897627	0.0310875
20953	-0.00101207	0.0313152
20989	-0.000992997	0.0317619
21025	-0.00082133	0.0309287
21061	-0.000897627	0.0311941
21097	-0.000916701	0.0313207
21133	-0.000897627	0.0316587
21169	-0.00101207	0.0307938
21205	-0.00108837	0.0309618
21241	-0.000802256	0.0310832
21277	-0.000878553	0.0315026
21313	-0.000840404	0.0306316
21349	-0.000897627	0.0307468
21385	-0.000973923	0.030917
21421	-0.000992997	0.0313986
21457	-0.000954849	0.0304393
21493	-0.00110744	0.0306035
21529	-0.000992997	0.0306914
21565	-0.000764108	0.0312494
21601	-0.00082133	0.0302804
21637	-0.000859479	0.0304128
21673	-0.000783182	0.030477
21709	-0.000897627	0.0312149
21745	-0.00101207	0.0301604
21781	-0.000916701	0.030358
21817	-0.00101207	0.0301948
21853	-0.00105022	0.030855
21889	-0.000992997	0.0298066
21925	-0.000935775	0.0298467
21961	-0.000897627	0.0298209
21997	-0.000954849	0.0304401
22033	-0.000802256	0.0294669
22069	-0.000840404	0.0296086
22105	-0.00082133	0.0295584
22141	-0.000878553	0.0302019
22177	-0.000973923	0.029283
22213	-0.00103115	0.0293619
22249	-0.000897627	0.0293816
22285	-0.000992997	0.0300794
22321	-0.000859479	0.029076
22357	-0.000859479	0.0290872
22393	-0.000935775	0.0291227
22429	-0.000897627	0.0298133
22465	-0.000840404	0.0288418
22501	-0.000897627	0.028795
22537	-0.00082133	0.0287879
22573	-0.000897627	0.0294655
22609	-0.000859479	0.028609
22645	-0.000840404	0.0285502
22681	-0.000878553	0.0285049
22717	-0.000840404	0.0291059
22753	-0.000973923	0.0283626
22789	-0.000878553	0.028323
22825	-2.00101	-67.3213
22861	-2.00103	-25.3488
22897	-2.00076	-15.2828
22933	-2.00093	-11.0779
22969	-2.0008	-8.81989
23005	-2.0008	-7.45654
23041	-2.00099	-6.5667
23077	-2.00091	-5.91855
23113	-2.00089	-5.44927
23149	-2.00093	-5.09549
23185	-2.00082	-4.80669
23221	-2.00097	-4.57147
23257	-2.00091	-4.37145
23293	-2.00078	-4.21037
23329	-2.0008	-4.05901
23365	-2.00093	-3.93441
23401	-2.00095	-3.82799
23437	-2.00089	-3.73861
23473	-2.00087	-3.65168
23509	-2.00095	-3.57456
23545	-2.00082	-3.50621
23581	-2.00093	-3.44868
23617	-2.00082	-3.38968
23653	-2.00089	-3.34424
23689	-2.00093	-3.30372
23725	-0.000764108	5.55681
23761	-0.000935775	2.46595
23797	-0.000897627	1.83292
23833	-0.000935775	1.57317
23869	-0.000973923	1.4347
23905	-0.00072596	1.32159
23941	-0.000973923	1.23468
23977	-0.000764108	1.16755
24013	-0.000859479	1.11862
24049	-0.00101207	1.06165
24085	-0.000897627	1.01008
24121	-0.00082133	0.967618
24157	-0.000859479	0.935516
24193	-0.000954849	0.896367
24229	-0.000897627	0.860681
24265	-0.000916701	0.832955
24301	-0.00105022	0.812703
24337	-0.000954849	0.786075
24373	-0.00105022	0.760856
24409	-0.000973923	0.74155
24445	-0.00105022	0.728217
24481	-0.000764108	0.709441
24517	-0.000878553	0.689926
24553	-0.00101207	0.675807
24589	-0.00101207	0.665659
24625	-0.000859479	0.651421
24661	-0.00101207	0.635278
24697	-0.000764108	0.624227
24733	-0.000745034	0.616201
24769	-0.000859479	0.60488
24805	-0.000954849	0.591015
24841	-0.000897627	0.582145
24877	-0.00110744	0.575804
24913	-0.000954849	0.566587
24949	-0.00105022	0.553625
24985	-0.000954849	0.545979
25021	-0.00110744	0.540428
25057	-0.000992997	0.532996
25093	-0.000916701	0.520888
25129	-0.000992997	0.51429
25165	-0.000878553	0.509383
25201	-0.000954849	0.503301
25237	-0.000954849	0.492013
25273	-0.000992997	0.486252
25309	-0.000764108	0.479606
25345	-0.000992997	0.474736
25381	-0.000897627	0.464037
25417	-0.00082133	0.458845
25453	-0.000973923	0.454771
25489	-0.000992997	0.450945
25525	-0.000745034	0.44081
25561	-0.000973923	0.436175
25597	-0.000802256	0.432471
25633	-0.000840404	0.429369
25669	-0.000840404	0.419784
25705	-0.00101207	0.415547
25741	-0.00082133	0.411982
25777	-0.000916701	0.409574
25813	-0.000992997	0.400526
25849	-0.00112652	0.396793
25885	-0.000935775	0.393494
25921	-0.000764108	0.391639
25957	-0.000764108	0.383246
25993	-0.000954849	0.380064
26029	-0.000935775	0.376867
26065	-0.00103115	0.375952
26101	-0.00105022	0.367588
26137	-0.000916701	0.364638
26173	-0.000840404	0.361835
26209	-0.00105022	0.360949
26245	-0.000992997	0.352591
26281	-0.000992997	0.349565
26317	-0.000840404	0.346792
26353	-0.000897627	0.346204
26389	-0.000973923	0.338483
26425	1.49945	33.3035
26461	1.4997	17.9968
26497	1.4997	13.3874
26533	1.49945	11.3562
26569	1.49949	10.2127
26605	1.49968	9.48111
26641	1.4997	8.94989
26677	1.49945	8.62991
26713	1.49957	8.34956
26749	1.49947	8.12694
26785	1.4993	7.901
26821	1.49953	7.7863
26857	1.49947	7.64194
26893	1.49972	7.51268
26929	1.49945	7.35348
26965	1.49957	7.29482
27001	-0.00106929	-33.6785
27037	-0.00103115	-0.803121
27073	-0.000954849	0.167138
27109	-0.000954849	0.311478
27145	-0.000878553	0.305612
27181	-0.00101207	0.281019
27217	-0.000878553	0.259365
27253	-0.00101207	0.232129
27289	-0.000878553	0.214125
27325	-0.00103115	0.198305
27361	-0.000973923	0.188038
27397	-0.00105022	0.173101
27433	-0.000992997	0.165693
27469	-0.000916701	0.159475
27505	-0.000897627	0.155326
27541	-0.000802256	0.146097
27577	-0.000973923	0.141796
27613	-0.000802256	0.137778
27649	-0.000992997	0.135425
27685	-0.000859479	0.128629
27721	-0.000687812	0.125611
27757	-0.000859479	0.122927
27793	-0.000840404	0.121612
27829	-0.000802256	0.115866
27865	-0.000916701	0.113159
27901	-0.000916701	0.11076
27937	-0.000897627	0.109691
27973	-0.000954849	0.104878
28009	-0.000916701	0.10257
28045	-0.000973923	0.100492
28081	-0.000878553	0.0996629
28117	-0.000859479	0.0957071
28153	-0.000954849	0.0937831
28189	-0.00105022	0.0922912
28225	-0.000878553	0.0918262
28261	-0.000992997	0.0884328
28297	-0.00101207	0.0867653
28333	-0.000992997	0.0856316
28369	-0.000954849	0.0855797
28405	-0.00082133	0.0828393
28441	-0.00101207	0.0812344
28477	-0.000897627	0.0802068
28513	-0.000878553	0.0797241
28549	-0.000745034	0.0772404
28585	-0.000878553	0.0756326
28621	-0.000973923	0.0745011
28657	-0.000935775	0.0742515
28693	-0.00110744	0.0721108
28729	-0.00108837	0.070544
28765	-0.000802256	0.0698711
28801	-0.00101207	0.0696965
28837	-0.000935775	0.0681488
28873	-0.000878553	0.0665536
28909	-0.00103115	0.0659449
28945	-0.00114559	0.0657894
28981	-0.000954849	0.0644607
29017	-0.000935775	0.0630455
29053	-0.00105022	0.0625466
29089	-0.000954849	0.0623166
29125	-0.000954849	0.061411
29161	-0.000992997	0.0599411
29197	-0.000916701	0.059528
29233	-0.000916701	0.0594216
29269	-0.000935775	0.0586443
29305	-0.000916701	0.0572614
29341	-0.000764108	0.056941
29377	-0.000783182	0.056871
29413	-0.00082133	0.056254
29449	-0.000954849	0.054706
29485	-0.000802256	0.0543135
29521	-0.000840404	0.0543247
29557	-0.000840404	0.0538564
29593	-0.000954849	0.0523969
29629	-0.000764108	0.0522296
29665	-0.000840404	0.052182
29701	-0.000935775	0.0520028
29737	-0.00105022	0.0504081
29773	-0.000878553	0.0502375
29809	-0.000764108	0.0501106
29845	-0.000935775	0.0497664
29881	-0.000954849	0.0481195
29917	-0.000897627	0.0480256
29953	-0.000802256	0.0479205
29989	-0.00101207	0.047981
30025	-0.000840404	0.0464565
30061	-0.000897627	0.04634
30097	-0.000745034	0.0463995
30133	-0.00082133	0.0465475
30169	-0.000878553	0.0451249
30205	-0.000897627	0.045112
30241	-0.000935775	0.0450267
30277	-0.000859479	0.0454033
30313	-0.00105022	0.0439293
30349	-0.000916701	0.0437989
30385	-0.000802256	0.0436563
30421	-0.000859479	0.0439243
30457	-0.000840404	0.0423838
30493	-0.000783182	0.0424567
30529	-0.000802256	0.0422283
30565	-0.000954849	0.042632
30601	-0.000745034	0.0410848
30637	-0.000992997	0.0411839
30673	-0.000935775	0.0410758
30709	-0.000783182	0.0415354
30745	-0.000878553	0.0401403
30781	-0.000954849	0.040185
30817	-0.000897627	0.0400432
30853	-0.000992997	0.0405282
30889	-0.000859479	0.0391967
30925	-0.000878553	0.0391288
30961	-0.000859479	0.0390867
30997	-0.00072596	0.0395958
31033	-0.000878553	0.0382754
31069	-0.000992997	0.0382679
31105	-0.000859479	0.0381315
31141	-0.00082133	0.0387276
31177	-0.00103115	0.0373858
31213	-0.00082133	0.037245
31249	-0.000897627	0.0369503
31285	-0.000973923	0.0375639
31321	-0.000935775	0.0361703
31357	-0.000840404	0.0362111
31393	-0.000897627	0.0361746
31429	-0.000916701	0.0367507
31465	-0.000954849	0.0356022
31501	-0.000916701	0.0355074
31537	-0.000878553	0.0353451
31573	-0.00103115	0.0360042
31609	-0.000954849	0.0348141
31645	-0.000935775	0.0348481
31681	-0.000783182	0.0347005
31717	-0.000916701	0.0351887
31753	-0.000859479	0.0341089
31789	-0.000802256	0.0339954
31825	-0.000992997	0.0339097
31861	-0.000897627	0.0345068
31897	-0.000897627	0.0333844
31933	-0.000954849	0.033345
31969	-0.000935775	0.0332299
32005	-0.000897627	0.0337263
32041	-0.000878553	0.0328015
32077	-0.00105022	0.0327117
32113	-0.000859479	0.0325975
32149	-0.000878553	0.0330412
32185	-0.000897627	0.0323148
32221	-0.000878553	0.0321534
32257	-0.000840404	0.0321368
32293	-0.000954849	0.0325986
32329	-0.000973923	0.0319793
32365	-0.000745034	0.0317992
32401	-0.000992997	0.0315719
32437	-0.000992997	0.0319817
32473	-0.000935775	0.0312524
32509	-0.00082133	0.0311627
32545	-0.00103115	0.0311682
32581	-0.000802256	0.0314806
32617	-0.000897627	0.0308012
32653	-0.000954849	0.0305273
32689	-0.000916701	0.030372
32725	-0.00105022	0.0307003
32761	-0.00072596	0.0302572
32797	-0.000859479	0.0299328
32833	-0.00103115	0.0298967
32869	-0.000897627	0.0302872
32905	-0.000859479	0.0300401
32941	-0.000935775	0.0294839
32977	-0.000859479	0.0295406
33013	-0.000878553	0.0297552
33049	-0.000954849	0.0295619
33085	-0.000935775	0.029081
33121	-0.000859479	0.0290907
33157	-0.000878553	0.0292885
33193	-0.000859479	0.0292102
33229	-0.000935775	0.0286592
33265	-0.000878553	0.0285874
33301	-0.000764108	0.0288129
33337	-0.000840404	0.0285853
33373	-0.000840404	0.028047
33409	-0.000878553	0.0280784
33445	-0.00103115	0.0282948
33481	-0.000783182	0.0282441
33517	-0.000859479	0.0276865
33553	-0.000935775	0.0276969
33589	-0.000916701	0.0278272
33625	-0.000859479	0.0279767
33661	-0.000802256	0.0274688
33697	-0.000859479	0.0274525
33733	-0.000992997	0.0276205
33769	-0.00108837	0.0276627
33805	-0.000916701	0.0269538
33841	-0.000954849	0.0269132
33877	-0.000954849	0.0269256
33913	-0.000992997	0.0270886
33949	-0.000897627	0.026453
33985	-0.000783182	0.0265476
34021	-0.000878553	0.0265573
34057	-0.000878553	0.0268612
34093	-0.000954849	0.0261291
34129	-0.000954849	0.0260876
34165	-0.00110744	0.0261877
34201	-0.000764108	0.026469
34237	-0.000973923	0.0257035
34273	-0.000706886	0.0257546
34309	-0.000878553	0.0258336
34345	-0.000935775	0.0262049
34381	-0.000859479	0.025451
34417	-0.000802256	0.0255983
34453	-0.000992997	0.0256888
34489	-0.00105022	0.0260827
34525	-0.000973923	0.0252991
34561	-0.000783182	0.0253733
34597	-0.000840404	0.0253941
34633	-0.00106929	0.0257103
34669	-0.00101207	0.0249644
34705	-0.000897627	0.0249421
34741	-0.000878553	0.0249746
34777	-0.000802256	0.0254286
34813	-0.00101207	0.0246089
34849	-0.000897627	0.0247512
34885	-0.000954849	0.0248001
34921	-0.000954849	0.0252029
34957	-0.000878553	0.0243567
34993	-0.00103115	0.0244535
35029	-0.000935775	0.0244888
35065	-0.000878553	0.0248983
35101	-0.000840404	0.0240558
35137	-0.00082133	0.0240765
35173	-0.000897627	0.0240525
35209	-0.000897627	0.024573
35245	-0.00072596	0.0238068
35281	-0.000973923	0.0238958
35317	-0.000916701	0.0238869
35353	-0.000802256	0.0243948
35389	-0.000954849	0.02361
35425	-0.00101207	0.0236576
35461	-0.000878553	0.0236723
35497	-0.000859479	0.0241646
35533	-0.000935775	0.0234267
35569	-0.000878553	0.0234555
35605	-0.000859479	0.0233696
35641	-0.000935775	0.0238906
35677	-0.000859479	0.0231743
35713	-0.000859479	0.0231333
35749	-0.00072596	0.0231524
35785	-0.000973923	0.0235577
35821	-0.00082133	0.0228652
35857	-0.000935775	0.0228344
35893	-0.000840404	0.0228399
35929	-0.000897627	0.0234736
35965	-0.000859479	0.0227319
36001	-2.00093	-231.155
36037	-2.00084	-30.9432
36073	-2.00084	-15.3985
36109	-2.00082	-10.6614
36145	-2.00097	-8.32038
36181	-2.00099	-6.95364
36217	-2.00091	-6.0761
36253	-2.00091	-5.45862
36289	-2.00095	-5.02028
36325	-2.00093	-4.70363
36361	-2.00095	-4.44563
36397	-2.0008	-4.22571
36433	-2.00107	-4.05107
36469	-2.00084	-3.90574
36505	-2.00093	-3.78839
36541	-2.00101	-3.67794
36577	-2.00078	-3.58741
36613	-2.00074	-3.5109
36649	-2.00089	-3.44601
36685	-2.00093	-3.381
36721	-2.00086	-3.33088
36757	-2.00093	-3.28515
36793	-2.00091	-3.24915
36829	-2.00087	-3.20987
36865	-2.00089	-3.17902
36901	-0.000935775	161.151
36937	-0.000897627	3.63885
36973	-0.00072596	1.84828
37009	-0.000878553	1.37077
37045	-0.000840404	1.15624
37081	-0.000897627	1.03723
37117	-0.000992997	0.939724
37153	-0.000878553	0.869182
37189	-0.000802256	0.81297
37225	-0.00101207	0.770455
37261	-0.000935775	0.72314
37297	-0.000840404	0.684511
37333	-0.000992997	0.651792
37369	-0.000859479	0.626877
37405	-0.000992997	0.595734
37441	-0.000897627	0.570436
37477	-0.000878553	0.549255
37513	-0.000916701	0.53345
37549	-0.000973923	0.512623
37585	-0.000878553	0.495751
37621	-0.00103115	0.480082
37657	-0.00082133	0.470352
37693	-0.000859479	0.455916
37729	-0.00110744	0.443964
37765	-0.000954849	0.434497
37801	-0.000878553	0.427884
37837	-0.000935775	0.417294
37873	-0.000897627	0.407967
37909	-0.000859479	0.400954
37945	-0.00105022	0.396012
37981	-0.00072596	0.38774
38017	-0.000859479	0.379838
38053	-0.000859479	0.374147
38089	-0.000954849	0.370667
38125	-0.00105022	0.364062
38161	-0.000935775	0.357242
38197	-0.000954849	0.352853
38233	-0.000783182	0.350002
38269	-0.000954849	0.344775
38305	-0.00103115	0.338644
38341	-0.000916701	0.33494
38377	-0.000954849	0.332663
38413	-0.000935775	0.328503
38449	-0.00110744	0.322804
38485	-0.000897627	0.319597
38521	-0.00106929	0.317533
38557	-0.00101207	0.313885
38593	-0.00082133	0.308804
38629	-0.000859479	0.306064
38665	-0.000935775	0.304151
38701	-0.000916701	0.301436
38737	-0.00101207	0.296248
38773	-0.000706886	0.293917
38809	-0.000840404	0.292227
38845	-0.000802256	0.290164
38881	-0.00116466	0.285199
38917	-0.000878553	0.282972
38953	-0.000992997	0.281566
38989	-0.00101207	0.279861
39025	-0.000878553	0.274926
39061	-0.000840404	0.27304
39097	-0.000954849	0.271467
39133	-0.00103115	0.270003
39169	-0.000954849	0.265257
39205	-0.000935775	0.263622
39241	-0.000897627	0.262425
39277	-0.000859479	0.261659
39313	-0.000916701	0.256801
39349	-0.000973923	0.255302
39385	-0.000992997	0.254287
39421	-0.000878553	0.253797
39457	-0.000935775	0.249234
39493	-0.000859479	0.247819
39529	-0.000916701	0.246518
39565	-0.000973923	0.246232
39601	1.49955	209.235
39637	1.49947	22.1252
39673	1.49957	12.9112
39709	1.49951	9.90183
39745	1.49949	8.5617
39781	1.49955	7.76898
39817	1.49936	7.2806
39853	1.49962	6.89732
39889	1.49962	6.75753
39925	1.49953	6.56685
39961	1.49957	6.42158
39997	1.49947	6.25554
40033	1.49966	6.25591
40069	1.49964	6.16131
40105	1.49962	6.08275
40141	1.49955	5.96037
40177	1.4996	5.9995
40213	-0.000935775	-3.25735
40249	-0.00082133	-0.382749
40285	-0.000935775	0.115018
40321	-0.000745034	0.191955
40357	-0.000935775	0.197063
40393	-0.000859479	0.187219
40429	-0.000859479	0.176928
40465	-0.000840404	0.163936
40501	-0.000783182	0.156031
40537	-0.000954849	0.147834
40573	-0.000764108	0.140581
40609	-0.00101207	0.13095
40645	-0.000764108	0.125252
40681	-0.00106929	0.11978
40717	-0.000992997	0.116532
40753	-0.000935775	0.110423
40789	-0.000916701	0.107739
40825	-0.000745034	0.104933
40861	-0.000992997	0.103423
40897	-0.000897627	0.0986636
40933	-0.000954849	0.0965924
40969	-0.000859479	0.0944615
41005	-0.000878553	0.0935083
41041	-0.00103115	0.0897633
41077	-0.000859479	0.0879717
41113	-0.000916701	0.086397
41149	-0.000897627	0.0858291
41185	-0.000840404	0.0826741
41221	-0.000878553	0.0812794
41257	-0.000916701	0.0799212
41293	-0.000764108	0.079454
41329	-0.000916701	0.0766777
41365	-0.000954849	0.0754085
41401	-0.000878553	0.0743103
41437	-0.000878553	0.0738244
41473	-0.000840404	0.0713868
41509	-0.00106929	0.0702522
41545	-0.000916701	0.0693622
41581	-0.000935775	0.0690994
41617	-0.00101207	0.0669803
41653	-0.000954849	0.0659954
41689	-0.000954849	0.0651673
41725	-0.00082133	0.0651248
41761	-0.000859479	0.063338
41797	-0.00105022	0.0624763
41833	-0.000935775	0.0617714
41869	-0.000897627	0.0616308
41905	-0.000745034	0.0601975
41941	-0.00082133	0.0594073
41977	-0.000916701	0.0587074
42013	-0.000878553	0.0586643
42049	-0.000954849	0.0574063
42085	-0.000897627	0.0563937
42121	-0.000916701	0.0557829
42157	-0.000916701	0.0556079
42193	-0.00101207	0.0544898
42229	-0.000878553	0.0535049
42265	-0.000992997	0.0531217
42301	-0.00101207	0.0530659
42337	-0.000783182	0.0520441
42373	-0.000840404	0.0510815
42409	-0.00103115	0.0506444
42445	-0.000859479	0.0505801
42481	-0.000992997	0.0499523
42517	-0.000973923	0.048922
42553	-0.00082133	0.0485545
42589	-0.000878553	0.0484452
42625	-0.000954849	0.0478971
42661	-0.000916701	0.0470664
42697	-0.000935775	0.0467384
42733	-0.000878553	0.0466375
42769	-0.000878553	0.046105
42805	-0.000954849	0.0451577
42841	-0.000897627	0.0449691
42877	-0.000954849	0.0447889
42913	-0.000916701	0.0444823
42949	-0.000916701	0.0434345
42985	-0.000973923	0.0432914
43021	-0.000897627	0.0430961
43057	-0.000878553	0.0428991
43093	-0.000878553	0.0419304
43129	-0.000954849	0.041735
43165	-0.000649663	0.0416117
43201	-0.00103115	0.0415769
43237	-0.000802256	0.0405582
43273	-0.000916701	0.0403457
43309	-0.000878553	0.0401154
43345	-0.000840404	0.0402684
43381	-0.000935775	0.0391637
43417	-0.000840404	0.0389726
43453	-0.000992997	0.0389119
43489	-0.00110744	0.0389488
43525	-0.000897627	0.0381316
43561	-0.000764108	0.037925
43597	-0.000840404	0.0378082
43633	-0.000859479	0.0380262
43669	-0.000916701	0.0369659
43705	-0.000992997	0.0367633
43741	-0.000802256	0.0367395
43777	-0.000840404	0.036887
43813	-0.00110744	0.035818
43849	-0.000954849	0.0357624
43885	-0.000935775	0.0357702
43921	-0.000859479	0.0360038
43957	-0.000878553	0.0349263
43993	-0.000840404	0.0348528
44029	-0.000802256	0.0348188
44065	-0.000992997	0.0351195
44101	-0.000840404	0.034198
44137	-0.000916701	0.0339554
44173	-0.000935775	0.0338507
44209	-0.000973923	0.0342916
44245	-0.000954849	0.0332726
44281	-0.000802256	0.033278
44317	-0.000802256	0.03322
44353	-0.00105022	0.0335806
44389	-0.000859479	0.0326751
44425	-0.00108837	0.0325057
44461	-0.000916701	0.0322972
44497	-0.000916701	0.0327792
44533	-0.000916701	0.0317175
44569	-0.000935775	0.0316991
44605	-0.000935775	0.0315241
44641	-0.000802256	0.0319552
44677	-0.000916701	0.031039
44713	-0.000859479	0.0309447
44749	-0.000973923	0.030768
44785	-0.000840404	0.0312257
44821	-0.000878553	0.0302984
44857	-0.000878553	0.0302482
44893	-0.000878553	0.0300148
44929	-0.000783182	0.0304562
44965	-0.000840404	0.0296913
45001	-0.000935775	0.0295961
45037	-0.000802256	0.0295503
45073	-0.00082133	0.0299377
45109	-0.000878553	0.0290261
45145	-0.000802256	0.0289688
45181	-0.000916701	0.0288966
45217	-0.000916701	0.029327
45253	-0.000783182	0.028606
45289	-0.000916701	0.0284996
45325	-0.000859479	0.0284392
45361	-0.000859479	0.0288727
45397	-0.000897627	0.0281055
45433	-0.000897627	0.0279954
45469	-0.000935775	0.027982
45505	-0.000764108	0.028241
45541	-0.000706886	0.0275528
45577	-0.000878553	0.027407
45613	-0.000935775	0.0273649
45649	-0.00082133	0.0277448
45685	-0.000954849	0.0270759
45721	-0.000916701	0.0269757
45757	-0.000859479	0.0269113
45793	-0.000897627	0.027283
45829	-0.000859479	0.0268331
45865	-0.000954849	0.0265696
45901	-0.000973923	0.0264255
45937	-0.000859479	0.0267159
45973	-0.000992997	0.0263352
46009	-0.000973923	0.0260686
46045	-0.000916701	0.0259977
46081	-0.000973923	0.0261833
46117	-0.000802256	0.0259152
46153	-0.00072596	0.0256721
46189	-0.000878553	0.0256297
46225	-0.000878553	0.0258028
46261	-0.00106929	0.0254532
46297	-0.000878553	0.0251745
46333	-0.000764108	0.0252074
46369	-0.000916701	0.0253989
46405	-0.000916701	0.0251315
46441	-0.000764108	0.024737
46477	-0.00103115	0.0246326
46513	-0.000878553	0.0249281
46549	-0.00106929	0.0247305
46585	-0.000935775	0.024404
46621	-0.000935775	0.0244139
46657	-0.00103115	0.0246016
46693	-0.00082133	0.02441
46729	-0.000859479	0.0240434
46765	-0.000859479	0.0241031
46801	-0.000859479	0.0241719
46837	-0.000954849	0.0240919
46873	-0.000897627	0.023687
46909	-0.000954849	0.0237445
46945	-0.000878553	0.023841
46981	-0.000897627	0.023811
47017	-0.000916701	0.0233985
47053	-0.000992997	0.0235531
47089	-0.000878553	0.0235797
47125	-0.000992997	0.0235962
47161	-0.000802256	0.023161
47197	-0.000802256	0.0233292
47233	-0.000954849	0.0232765
47269	-0.000897627	0.0234009
47305	-0.000954849	0.0230094
47341	-0.000954849	0.022966
47377	-0.000878553	0.0228941
47413	-0.000954849	0.0230577
47449	-0.000840404	0.0224773
47485	-0.000992997	0.0224883
47521	-0.000992997	0.0224987
47557	-0.000916701	0.0227645
47593	-0.000897627	0.0221717
47629	-0.000802256	0.0222061
47665	-0.00105022	0.0221717
47701	-0.000935775	0.0224707
47737	-0.00082133	0.0218133
47773	-0.000897627	0.0218114
47809	-0.000935775	0.0218917
47845	-0.000916701	0.0222221
47881	-0.00105022	0.0216156
47917	-0.00112652	0.0217158
47953	-0.000802256	0.0216956
47989	-0.000764108	0.022009
48025	-0.000973923	0.0214007
48061	-0.000878553	0.0214576
48097	-0.00105022	0.0214228
48133	-0.00101207	0.0216563
48169	-0.00082133	0.0212186
48205	-0.00082133	0.0211884
48241	-0.00082133	0.0212886
48277	-0.000935775	0.0215619
48313	-0.000897627	0.020947
48349	-0.000916701	0.0210053
48385	-0.000935775	0.0210737
48421	-0.000954849	0.0213665
48457	-0.000897627	0.0206795
48493	-0.000973923	0.0208076
48529	-0.000840404	0.0208586
48565	-0.000840404	0.0212054
48601	-0.00082133	0.0205201
48637	-0.000840404	0.0206774
48673	-0.000859479	0.020548
48709	-0.000954849	0.0209438
48745	-0.000897627	0.020242
48781	-0.000859479	0.0203849
48817	-0.00106929	0.020294
48853	-0.000745034	0.0207388
48889	-0.00101207	0.0199386
48925	-0.00105022	0.0199348
48961	-0.000878553	0.020023
48997	-0.000840404	0.0204693
49033	-0.000916701	0.019808
49069	-0.000954849	0.0198468
49105	-0.000840404	0.0198508
49141	-0.000916701	0.0201735
49177	-0.000897627	0.0197081
49213	-2.00095	-69.5997
49249	-2.00086	-19.1028
49285	-2.00084	-11.3887
49321	-2.00091	-8.36749
49357	-2.00093	-6.77187
49393	-2.00076	-5.80075
49429	-2.00095	-5.15853
49465	-2.00076	-4.71119
49501	-2.00089	-4.37714
49537	-2.00095	-4.12089
49573	-2.00087	-3.92235
49609	-2.0007	-3.75547
49645	-2.00087	-3.62525
49681	-2.00095	-3.51793
49717	-2.00082	-3.42966
49753	-2.00074	-3.34861
49789	-2.00076	-3.28585
49825	-2.0008	-3.23088
49861	-2.0008	-3.18754
49897	-2.00095	-3.14527
49933	-2.00101	-3.11102
49969	-2.00091	-3.08388
50005	-2.00086	-3.06189
50041	-2.0008	-3.0383
50077	-2.00095	-3.02227
50113	-0.00105022	9.61755
50149	-0.000916701	2.62673
50185	-0.000859479	1.46478
50221	-0.000859479	1.09515
50257	-0.000973923	0.915587
50293	-0.000935775	0.811951
50329	-0.000878553	0.726807
50365	-0.000840404	0.667141
50401	-0.000764108	0.619635
50437	-0.000992997	0.58382
50473	-0.000935775	0.544357
50509	-0.000764108	0.514415
50545	-0.000935775	0.488765
50581	-0.000783182	0.467006
50617	-0.000859479	0.442811
50653	-0.000954849	0.424268
50689	-0.000859479	0.408321
50725	-0.000764108	0.396623
50761	-0.000859479	0.380468
50797	-0.000897627	0.368199
50833	-0.000878553	0.357618
50869	-0.00082133	0.34976
50905	-0.00103115	0.338579
50941	-0.000706886	0.329761
50977	-0.000935775	0.322436
51013	-0.000992997	0.317102
51049	-0.000973923	0.308647
51085	-0.00103115	0.302067
51121	-0.000764108	0.296586
51157	-0.000878553	0.292828
51193	-0.000897627	0.286574
51229	-0.000897627	0.281286
51265	-0.00103115	0.277105
51301	-0.000897627	0.274599
51337	-0.000973923	0.269455
51373	-0.000992997	0.265078
51409	-0.000840404	0.261602
51445	-0.000992997	0.259564
51481	-0.000859479	0.255448
51517	-0.000935775	0.251756
51553	-0.000859479	0.249162
51589	-0.000840404	0.247702
51625	-0.000935775	0.244503
51661	-0.000745034	0.241267
51697	-0.000916701	0.239266
51733	-0.00101207	0.238096
51769	-0.00105022	0.235344
51805	-0.000954849	0.232291
51841	-0.000897627	0.23063
51877	-0.000859479	0.229412
51913	-0.000935775	0.227551
51949	-0.000859479	0.224401
51985	-0.000916701	0.222772
52021	-0.00108837	0.221819
52057	-0.000878553	0.219945
52093	-0.000973923	0.217218
52129	-0.000992997	0.215898
52165	-0.000973923	0.215131
52201	-0.00082133	0.213553
52237	-0.000764108	0.210854
52273	-0.000859479	0.209635
52309	-0.00101207	0.208861
52345	-0.000783182	0.207645
52381	-0.000878553	0.205016
52417	-0.000687812	0.203857
52453	-0.000878553	0.20299
52489	-0.000992997	0.202135
52525	-0.000992997	0.199537
52561	-0.000916701	0.198399
52597	-0.000878553	0.197608
52633	-0.000878553	0.197048
52669	-0.00082133	0.194358
52705	-0.000992997	0.193369
52741	-0.000916701	0.192602
52777	-0.000954849	0.192072
52800	-0.000916701	0.189797