File: Data_29_Experiment/CA_274_010_minutes_C01.txt
time/s	Ewe/V	<I>/mA
1	1.49951	73.385
10	1.49972	22.9057
19	1.49949	17.226
28	1.49953	14.5419
37	1.49949	12.8394
46	1.49961	11.6103
55	1.49961	10.6387
64	1.49945	9.8887
73	1.49943	9.23191
82	1.49938	8.69899
91	1.49951	8.22365
100	1.49953	7.78235
109	1.49959	7.44666
118	1.49947	7.06511
127	1.49947	6.81143
136	1.49936	6.49103
145	1.49951	6.27358
154	1.49957	6.03888
163	1.49955	5.81614
172	1.49953	5.64379
181	1.49951	5.39791
190	1.4997	5.26511
199	1.4993	5.02011
208	1.49961	4.93233
217	1.49955	4.73284
226	1.49941	4.61356
235	1.49945	4.50143
244	1.49955	4.33153
253	1.49953	4.25802
262	1.49962	4.07181
271	1.49951	4.05632
280	1.49941	3.90436
289	1.49947	3.88851
298	1.49959	3.82013
307	1.49947	3.72473
316	1.49953	3.70094
325	1.49953	3.55021
334	1.49955	3.5628
343	1.49962	3.39473
352	1.49951	3.43403
361	1.49953	3.35451
370	1.49953	3.31551
379	1.49953	3.30879
388	1.49962	3.18403
397	1.49959	3.21188
406	1.49947	3.04089
415	1.49962	3.10739
424	1.49962	2.99314
433	1.49951	3.02348
442	1.49945	3.01485
451	1.49959	2.92659
460	1.49964	2.9666
469	1.49949	2.81239
478	1.49945	2.88788
487	1.49957	2.74465
496	1.49959	2.82071
505	1.49943	2.79936
514	1.49962	2.76145
523	1.49959	2.82084
532	1.49947	2.68432
541	1.49961	2.77738
550	1.49953	2.62393
559	1.49941	2.72939
568	1.49962	2.67193
577	1.49962	2.69094
586	1.49953	2.74471
595	1.49966	2.64979
603.952	-0.00091589	-8.15904
612.952	-0.000877742	-1.55433
621.952	-0.000839594	-0.727559
630.952	-0.000782372	-0.436746
639.952	-0.000992187	-0.293917
648.952	-0.000896816	-0.213088
657.952	-0.000858668	-0.160833
666.952	-0.000877742	-0.124013
675.952	-0.00082052	-0.0989187
684.952	-0.000877742	-0.0808251
693.952	-0.000896816	-0.0675493
702.952	-0.00082052	-0.0571131
711.952	-0.00091589	-0.0495244
720.952	-0.00101126	-0.0422906
729.952	-0.000782372	-0.0366093
738.952	-0.000858668	-0.0321117
747.952	-0.000839594	-0.0279464
756.952	-0.000839594	-0.0245883
765.952	-0.000954038	-0.0214879
774.952	-0.000782372	-0.0187473
783.952	-0.00091589	-0.0163827
792.952	-0.000782372	-0.0140598
801.952	-0.000877742	-0.0122757
810.952	-0.00082052	-0.0105662
819.952	-0.000954038	-0.00906407
828.952	-0.00082052	-0.00754444
837.952	-0.000801446	-0.0062781
846.952	-0.00082052	-0.00512273
855.952	-0.000801446	-0.00383439
864.952	-0.000782372	-0.00301036
873.952	-0.00082052	-0.00193752
882.952	-0.000858668	-0.00120371
891.952	-0.000973113	-0.000437469
900.952	-0.000896816	0.000182236
909.952	-0.000801446	0.000855926
918.952	-0.000782372	0.0015886
927.952	-0.000839594	0.00213507
936.952	-0.000877742	0.00292205
945.952	-0.00091589	0.00316104
954.952	-0.000687001	0.00372842
963.952	-0.00091589	0.00418134
972.952	-0.000839594	0.00453041
981.952	-0.000763297	0.00496621
990.952	-0.000992187	0.00540322
999.952	-0.000992187	0.00577437
1008.95	-0.000667927	0.00605797
1017.95	-0.000706075	0.00637708
1026.95	-0.000954038	0.00666847
1035.95	-0.000687001	0.00694843
1044.95	-0.000934964	0.00720192
1053.95	-0.000896816	0.00741118
1062.95	-0.000744223	0.00772831
1071.95	-0.00104941	0.00796365
1080.95	-0.000839594	0.00832751
1089.95	-0.00091589	0.00835946
1098.95	-0.00101126	0.00862088
1107.95	-0.000801446	0.00877259
1116.95	-0.000763297	0.00894886
1125.95	-0.00091589	0.00906849
1134.95	-0.000973113	0.00927174
1143.95	-0.000896816	0.00950536
1152.95	-0.000934964	0.00960892
1161.95	-0.000934964	0.00992397
1170.95	-0.000858668	0.00992865
1179.95	-0.000954038	0.0101145
1188.95	-0.000858668	0.0101507
1197.95	-0.000782372	0.0102056
1206.95	-0.000782372	0.0104411
1215.95	-0.000877742	0.010543
1224.95	-0.000934964	0.010861
1233.95	-0.00082052	0.0107091
1242.95	-0.00091589	0.0109655
1251.95	-0.00091589	0.0109078
1260.95	-0.00082052	0.0109365
1269.95	-0.000973113	0.0110783
1278.95	-0.000839594	0.0111599
1287.95	-0.000725149	0.0113453
1296.95	-0.00091589	0.0113298
1305.95	-0.000858668	0.0116469
1314.95	-0.000839594	0.0115103
1323.95	-0.000877742	0.0115307
1332.95	-0.000896816	0.0115979
1341.95	-0.000763297	0.0115943
1350.95	-0.00082052	0.0117044
1359.95	-0.00082052	0.0117077
1368.95	-0.000858668	0.01197
1377.95	-0.000839594	0.0118205
1386.95	-0.000954038	0.0120476
1395.95	-0.000973113	0.0119987
1404.95	-0.000954038	0.0119668
1413.95	-0.000858668	0.0120474
1422.95	-0.00091589	0.0120488
1431.95	-0.000801446	0.0121174
1440.95	-0.000858668	0.0120866
1449.95	-0.000858668	0.0123459
1458.95	-0.000877742	0.012228
1467.95	-0.000896816	0.0122817
1476.95	-0.000858668	0.0122214
1485.95	-0.000877742	0.0122743
1494.95	-0.000858668	0.0121948
1503.95	-0.000877742	0.0122858
1512.95	-0.00101126	0.0124999
1521.95	-0.000801446	0.0124704
1530.95	-0.000877742	0.0125356
1539.95	-0.000782372	0.0123579
1548.95	-0.00082052	0.0124067
1557.95	-0.000801446	0.0125161
1566.95	-0.000744223	0.0125123
1575.95	-0.000896816	0.0125773
1584.95	-0.000896816	0.0125124
1593.95	-0.000839594	0.0127014
1602.95	-0.000896816	0.0125799
1611.95	-0.000877742	0.0125903
1620.95	-0.000858668	0.0125297
1629.95	-0.00082052	0.0125137
1638.95	-0.00082052	0.0125951
1647.95	-0.000782372	0.0126093
1656.95	-0.000801446	0.0127242
1665.95	-0.000877742	0.0126744
1674.95	-0.00082052	0.0127539
1683.95	-0.000801446	0.0125623
1692.95	-0.000744223	0.0126665
1701.95	-0.000801446	0.0125615
1710.95	-0.000992187	0.0126365
1719.95	-0.000763297	0.0125991
1728.95	-0.000839594	0.0126342
1737.95	-0.000858668	0.0128326
1746.95	-0.000973113	0.0126565
1755.95	-0.000839594	0.0127756
1764.95	-0.000782372	0.0126498
1773.95	-0.00091589	0.0126302
1782.95	-0.000801446	0.0127036
1791.95	-0.00091589	0.0126572
1800.95	-0.000858668	0.0127534
1809.95	-0.000858668	0.0127044
1818.95	-0.000896816	0.0128052
1827.95	-0.000896816	0.012692
1836.95	-0.000782372	0.0126743
1845.95	-0.000973113	0.0126292
1854.95	-0.000896816	0.0126477
1863.95	-0.00091589	0.0126749
1872.95	-0.000954038	0.0124801
1881.95	-0.00082052	0.0127829
1890.95	-0.00112571	0.0126407
1899.95	-0.00082052	0.0126695
1908.95	-0.000973113	0.0126177
1917.95	-0.000858668	0.01263
1926.95	-0.000839594	0.0125641
1935.95	-0.000801446	0.0126011
1944.95	-0.000896816	0.012692
1953.95	-0.000782372	0.0125323
1962.95	-0.000839594	0.0127539
1971.95	-0.00091589	0.0125632
1980.95	-0.000934964	0.0126151
1989.95	-0.00082052	0.0126031
1998.95	-0.000839594	0.0125546
2007.95	-0.000877742	0.0125508
2016.95	-0.000934964	0.0124592
2025.95	-0.000801446	0.0126872
2034.95	-0.000896816	0.0125491
2043.95	-0.000858668	0.0126863
2052.95	-0.000973113	0.0125307
2061.95	-0.000896816	0.0125398
2070.95	-0.000877742	0.0125585
2079.95	-0.000801446	0.0124462
2088.95	-0.00091589	0.0127492
2097.95	-0.000801446	0.0125322
2106.95	-0.00082052	0.0125912
2115.95	-0.000954038	0.0124571
2124.95	-0.000744223	0.0124761
2133.95	-0.000839594	0.0124943
2142.95	-0.000858668	0.0124283
2151.95	-0.00104941	0.0124576
2160.95	-0.000934964	0.01244
2169.95	-0.00091589	0.0125493
2178.95	-0.000839594	0.0123831
2187.95	-0.000858668	0.0125487
2196.95	-0.00091589	0.0123372
2205.95	-0.000858668	0.0124168
2214.95	-0.000858668	0.0123396
2223.95	-0.00106848	0.0123682
2232.95	-0.000839594	0.0124485
2241.95	-0.000896816	0.0124153
2250.95	-0.000839594	0.0126526
2259.95	-0.000763297	0.012564
2268.95	-0.00082052	0.0125179
2277.95	-0.000954038	0.0124777
2286.95	-0.000858668	0.0125279
2295.95	-0.000934964	0.0124315
2304.95	-0.000877742	0.0124792
2313.95	-0.000801446	0.0126714
2322.95	-0.00101126	0.0124819
2331.95	-0.00104941	0.0125438
2340.95	-0.000934964	0.0124762
2349.95	-0.000973113	0.012424
2358.95	-0.00082052	0.0124747
2367.95	-0.000954038	0.0124001
2376.95	-0.000744223	0.0124312
2385.95	-0.000801446	0.0123783
2394.95	-0.000934964	0.0125372
2403.95	-0.000801446	0.0123679
2412.95	-0.000992187	0.0123596
2421.95	-0.000858668	0.0123794
2430.95	-0.000858668	0.0122586
2439.95	-0.000858668	0.0123086
2448.95	-0.000934964	0.0123445
2457.95	-0.000877742	0.0124578
2466.95	-0.000896816	0.0122741
2475.95	-0.000839594	0.0124048
2484.95	-0.000782372	0.0123253
2493.95	-0.00091589	0.0122835
2502.95	-0.000877742	0.0122141
2511.95	-0.000801446	0.0122221
2520.95	-0.000877742	0.0123266
2529.95	-0.000782372	0.0122426
2538.95	-0.000801446	0.0123412
2547.95	-0.000858668	0.0121877
2556.95	-0.000801446	0.0123093
2565.95	-0.00091589	0.0121983
2574.95	-0.000954038	0.0121192
2583.95	-0.000744223	0.0122359
2592.95	-0.000896816	0.0121861
2601.95	-0.000763297	0.0123619
2610.95	-0.000858668	0.0121167
2619.95	-0.000896816	0.0122241
2628.95	-0.000858668	0.0120454
2637.95	-0.000877742	0.0120401
2646.95	-0.000839594	0.01211
2655.95	-0.000896816	0.01214
2664.95	-0.000839594	0.0120857
2673.95	-0.000839594	0.0119966
2682.95	-0.000934964	0.0121781
2691.95	-0.000934964	0.0120035
2700.95	-0.000839594	0.0121006
2709.95	-0.000801446	0.012017
2718.95	-0.00082052	0.0120363
2727.95	-0.000992187	0.0119769
2736.95	-0.000839594	0.0119817
2745.95	-0.000877742	0.0120654
2754.95	-0.000725149	0.0119887
2763.95	-0.000934964	0.0120754
2772.95	-0.00082052	0.0119731
2781.95	-0.00091589	0.0119415
2790.95	-0.00101126	0.0118583
2799.95	-0.00101126	0.0118872
2808.95	-0.000839594	0.0119165
2817.95	-0.000839594	0.0118651
2826.95	-0.00082052	0.0120787
2835.95	-0.00091589	0.0119083
2844.95	-0.000896816	0.0118899
2853.95	-0.000782372	0.011859
2862.95	-0.00101126	0.0118307
2871.95	-0.000763297	0.0117753
2880.95	-0.000973113	0.0118657
2889.95	-0.000896816	0.0119653
2898.95	-0.000763297	0.0117853
2907.95	-0.00091589	0.0119179
2916.95	-0.000858668	0.0116935
2925.95	-0.000934964	0.0117886
2934.95	-0.000858668	0.0117416
2943.95	-0.000858668	0.0116942
2952.95	-0.000839594	0.0117799
2961.95	-0.000896816	0.0117776
2970.95	-0.000877742	0.0118628
2979.95	-0.000992187	0.0116919
2988.95	-0.000839594	0.0117932
2997.95	-0.000896816	0.011733
3006.95	-0.000877742	0.0117042
3015.95	-0.00091589	0.0116619
3024.95	-0.00082052	0.0117036
3033.95	-0.00091589	0.0117421
3042.95	-0.000744223	0.0116806
3051.95	-0.000992187	0.0117911
3060.95	-0.00091589	0.0116894
3069.95	-0.000744223	0.0116326
3078.95	-0.000896816	0.0115666
3087.95	-0.000706075	0.0115457
3096.95	-0.000934964	0.0116535
3105.95	-0.00091589	0.0116122
3114.95	-0.000896816	0.0117745
3123.95	-0.000763297	0.0115552
3132.95	-0.000839594	0.0115969
3141.95	-0.000839594	0.011585
3150.95	-0.00091589	0.0115522
3159.95	-0.00091589	0.011489
3168.95	-0.00104941	0.0115056
3177.95	-0.000954038	0.0116182
3186.95	-0.000782372	0.0115268
3195.95	-0.000687001	0.011538
3204.95	-0.000763297	0.0114711
3213.95	-0.000858668	0.0114886
3222.95	-0.000801446	0.0114463
3231.95	-0.000896816	0.01146
3240.95	-0.000858668	0.0115009
3249.95	-0.000934964	0.0114273
3258.95	-0.000992187	0.0116342
3267.95	-0.000839594	0.0113801
3276.95	-0.000992187	0.0114633
3285.95	-0.000934964	0.0113714
3294.95	-0.000782372	0.0113161
3303.95	-0.00091589	0.0113558
3312.95	-0.000877742	0.0113499
3321.95	-0.000973113	0.0114392
3330.95	-0.00101126	0.0114688
3339.95	-0.000839594	0.0113998
3348.95	-0.000934964	0.01128
3357.95	-0.000954038	0.011353
3366.95	-0.000954038	0.0113048
3375.95	-0.00091589	0.0112932
3384.95	-0.000954038	0.0113031
3393.95	-0.000763297	0.0113189
3402.95	-0.000782372	0.0113984
3411.95	-0.000858668	0.0112985
3420.95	-0.000877742	0.0113235
3429.95	-0.000744223	0.0112504
3438.95	-0.000954038	0.011248
3447.95	-0.000763297	0.0111952
3456.95	-0.000896816	0.0112221
3465.95	-0.000839594	0.0113415
3474.95	-0.00091589	0.0112354
3483.95	-0.000782372	0.011314
3492.95	-0.00108756	0.011171
3501.95	-0.00082052	0.0112248
3510.95	-0.000858668	0.0111656
3519.95	-0.000858668	0.0111433
3528.95	-0.00103033	0.0110643
3537.95	-0.000896816	0.0111361
3546.95	-0.000839594	0.0112911
3555.95	-0.000839594	0.0110886
3564.95	-0.000839594	0.0111625
3573.95	-0.000992187	0.0110726
3582.95	-0.000934964	0.0111962
3591.95	-0.000934964	0.0111256
3600.95	-0.000801446	0.0110458
3609.95	-0.00101126	0.0110827
3618.95	-0.000839594	0.0111448
3627.95	-0.000877742	0.0111231
3636.95	-0.000877742	0.01103
3645.95	-0.000839594	0.0110548
3654.95	-0.000801446	0.0109607
3663.95	-0.000992187	0.0109968
3672.95	-0.000839594	0.0110298
3681.95	-0.000954038	0.0109951
3690.95	-0.000763297	0.0110984
3699.95	-0.00091589	0.0110364
3708.95	-0.000858668	0.0110621
3717.95	-0.000896816	0.0110008
3726.95	-0.000896816	0.0110231
3735.95	-0.000782372	0.0109418
3744.95	-0.000744223	0.0109708
3753.95	-0.00091589	0.011018
3762.95	-0.000877742	0.0109132
3771.95	-0.000877742	0.0111506
3780.95	-0.000839594	0.0109166
3789.95	-0.000954038	0.0109504
3798.95	-0.000801446	0.0109087
3807.95	-0.000934964	0.0108948
3816.95	-0.000896816	0.0108421
3825.95	-0.000839594	0.0108718
3834.95	-0.00091589	0.0109194
3843.95	-0.00091589	0.0109328
3852.95	-0.000725149	0.0109887
3861.95	-0.000877742	0.0108115
3870.95	-0.00108756	0.0108451
3879.95	-0.000934964	0.0107642
3888.95	-0.00091589	0.0108089
3897.95	-0.00082052	0.0107937
3906.95	-0.000896816	0.0107803
3915.95	-0.000839594	0.0109153
3924.95	-0.000896816	0.0106795
3933.95	-0.000992187	0.0108162
3942.95	-0.000782372	0.010689
3951.95	-0.000839594	0.01073
3960.95	-0.000877742	0.0106525
3969.95	-0.000877742	0.010847
3978.95	-0.000687001	0.0107946
3987.95	-0.000801446	0.0106657
3996.95	-0.00082052	0.0108515
4005.95	-0.000934964	0.0106945
4014.95	-0.00091589	0.010659
4023.95	-0.000744223	0.0105987
4032.95	-0.000877742	0.0106698
4041.95	-0.000992187	0.0107022
4050.95	-0.000763297	0.0106476
4059.95	-0.000801446	0.0107961
4068.95	-0.000744223	0.0106542
4077.95	-0.00091589	0.0107374
4086.95	-0.000877742	0.0106003
4095.95	-0.00091589	0.0106115
4104.95	-0.000706075	0.0106216
4113.95	-0.000839594	0.0106265
4122.95	-0.00091589	0.0107162
4131.95	-0.00101126	0.0106292
4140.95	-0.000858668	0.0106963
4149.95	-0.000896816	0.0105759
4158.95	-0.000896816	0.0105069
4167.95	-0.000744223	0.0105286
4176.95	-0.000896816	0.0105442
4185.95	-0.000839594	0.0105262
4194.95	-0.000896816	0.0105392
4203.95	-0.000973113	0.0107564
4212.95	-0.00106848	0.0104622
4221.95	-0.00103033	0.0105738
4230.95	-0.000858668	0.0105753
4239.95	-0.000877742	0.010488
4248.95	-0.000801446	0.0104807
4257.95	-0.000839594	0.0104939
4266.95	-0.000667927	0.0106159
4275.95	-0.00091589	0.0105377
4284.95	-0.000744223	0.0106312
4293.95	-0.000782372	0.01046
4302.95	-0.000858668	0.0105302
4311.95	-0.000896816	0.0104478
4320.95	-0.000667927	0.0103856
4329.95	-0.000782372	0.0104246
4338.95	-0.000801446	0.0104471
4347.95	-0.000973113	0.0105168
4356.95	-0.00091589	0.0104653
4365.95	-0.000801446	0.0105405
4374.95	-0.000839594	0.0103839
4383.95	-0.000877742	0.0104468
4392.95	-0.000782372	0.0103269
4401.95	-0.000725149	0.0103615
4410.95	-0.000839594	0.0105892
4419.95	-0.000896816	0.0104326
4428.95	-0.000896816	0.0105184
4437.95	-0.00082052	0.0103504
4446.95	-0.000801446	0.0103898
4455.95	-0.000877742	0.0102847
4464.95	-0.000763297	0.0103835
4473.95	-0.00091589	0.0104051
4482.95	-0.000954038	0.0103619
4491.95	-0.000896816	0.0104838
4500.95	-0.000896816	0.0103605
4509.95	-0.000934964	0.0104533
4518.95	-0.000877742	0.0103848
4527.95	-0.00101126	0.0102699
4536.95	-0.00091589	0.0102484
4545.95	-0.000858668	0.0102349
4554.95	-0.000839594	0.0103676
4563.95	-0.000934964	0.0103118
4572.95	-0.000896816	0.0104594
4581.95	-0.000877742	0.010263
4590.95	-0.000992187	0.010287
4599.95	-0.000801446	0.0102568
4608.95	-0.000973113	0.0102349
4617.95	-0.000782372	0.0101581
4626.95	-0.000801446	0.0102487
4635.95	-0.000877742	0.0103898
4644.95	-0.000934964	0.0103034
4653.95	-0.000896816	0.0103541
4662.95	-0.000973113	0.0101905
4671.95	-0.000801446	0.0102453
4680.95	-0.000896816	0.0101185
4689.95	-0.000896816	0.0101911
4698.95	-0.000954038	0.0102434
4707.95	-0.000763297	0.0101717
4716.95	-0.00082052	0.0102984
4725.95	-0.000877742	0.0100534
4734.95	-0.000763297	0.0101679
4743.95	-0.000839594	0.0100845
4752.95	-0.00091589	0.0101221
4761.95	-0.000858668	0.0101514
4770.95	-0.000954038	0.0100427
4779.95	-0.000934964	0.0102599
4788.95	-0.000934964	0.0101723
4797.95	-0.000782372	0.0101784
4806.95	-0.000877742	0.010089
4815.95	-0.000839594	0.0101082
4824.95	-0.000934964	0.0100706
4833.95	-0.000801446	0.0100569
4842.95	-0.000877742	0.0102353
4851.95	-0.000858668	0.0101144
4860.95	-0.000896816	0.0102107
4869.95	-0.000934964	0.0101282
4878.95	-0.000973113	0.0100364
4887.95	-0.000896816	0.0100271
4896.95	-0.000877742	0.0100013
4905.95	-0.000877742	0.0100667
4914.95	-0.000896816	0.0100582
4923.95	-0.000744223	0.0101705
4932.95	-0.000954038	0.0100784
4941.95	-0.000858668	0.0101534
4950.95	-0.000877742	0.00999204
4959.95	-0.000896816	0.0100418
4968.95	-0.000763297	0.00996623
4977.95	-0.000877742	0.0100943
4986.95	-0.000801446	0.0100168
4995.95	-0.000801446	0.0100233
5004.95	-0.000839594	0.0102036
5013.95	-0.000896816	0.00999454
5022.95	-0.00091589	0.0100912
5031.95	-0.000896816	0.0099444
5040.95	-0.000954038	0.00996943
5049.95	-0.000839594	0.00996524
5058.95	-0.000744223	0.00999923
5067.95	-0.000954038	0.0100461
5076.95	-0.00091589	0.00997425
5085.95	-0.000858668	0.0100752
5094.95	-0.00091589	0.00989939
5103.95	-0.000954038	0.0100235
5112.95	-0.000954038	0.00988955
5121.95	-0.000877742	0.0099748
5130.95	-0.000858668	0.00993171
5139.95	-0.000992187	0.00997912
5148.95	-0.000782372	0.0100343
5157.95	-0.00082052	0.00997157
5166.95	-0.000763297	0.0100105
5175.95	-0.000896816	0.00991369
5184.95	-0.00082052	0.00985906
5193.95	-0.000954038	0.00985516
5202.95	-0.000801446	0.00989317
5211.95	-0.00091589	0.010004
5220.95	-0.00091589	0.00994003
5229.95	-0.000934964	0.00996988
5238.95	-0.000896816	0.00990986
5247.95	-0.000858668	0.00986579
5256.95	-0.00106848	0.00983366
5265.95	-0.000763297	0.00981258
5274.95	-0.00091589	0.00987207
5283.95	-0.000858668	0.00985867
5292.95	-0.000992187	0.0100389
5301.95	-0.000858668	0.00979635
5310.95	-0.00082052	0.00986651
5319.95	-0.000839594	0.00981019
5328.95	-0.000687001	0.00974098
5337.95	-0.00082052	0.00979618
5346.95	-0.000896816	0.00983882
5355.95	-0.000839594	0.00995678
5364.95	-0.000896816	0.0098639
5373.95	-0.000877742	0.00991915
5382.95	-0.000896816	0.00974082
5391.95	-0.000973113	0.00978808
5400.95	-0.000877742	0.00978259
5409.95	-0.000877742	0.00978903
5418.95	-0.000839594	0.00980079
5427.95	-0.000725149	0.00981198
5436.95	-0.000934964	0.00990487
5445.95	-0.000706075	0.00974317
5454.95	-0.000687001	0.00980522
5463.95	-0.00082052	0.00975271
5472.95	-0.00091589	0.00973122
5481.95	-0.000877742	0.00967834
5490.95	-0.000954038	0.00977773
5499.95	-0.00091589	0.00978079
5508.95	-0.000725149	0.00973058
5517.95	-0.00082052	0.00987129
5526.95	-0.000763297	0.00973805
5535.95	-0.000782372	0.0097063
5544.95	-0.00091589	0.00968369
5553.95	-0.00091589	0.00971605
5562.95	-0.000896816	0.00974914
5571.95	-0.00082052	0.00967532
5580.95	-0.000954038	0.00990629
5589.95	-0.000896816	0.00972166
5598.95	-0.000801446	0.00975699
5607.95	-0.000858668	0.00967094
5616.95	-0.00082052	0.00965043
5625.95	-0.000877742	0.00964344
5634.95	-0.000896816	0.00972573
5643.95	-0.000954038	0.00970806
5652.95	-0.000858668	0.00968192
5661.95	-0.000877742	0.00975434
5670.95	-0.000954038	0.00960126
5679.95	-0.00103033	0.0096858
5688.95	-0.000954038	0.00956934
5697.95	-0.000877742	0.00957117
5706.95	-0.000992187	0.0096011
5715.95	-0.000973113	0.00962594
5724.95	-0.000973113	0.00968884
5733.95	-0.00091589	0.00961834
5742.95	-0.000934964	0.00967631
5751.95	-0.000839594	0.00961636
5760.95	-0.000782372	0.00959083
5769.95	-0.000896816	0.00956563
5778.95	-0.000801446	0.00958856
5787.95	-0.000896816	0.00960941
5796.95	-0.000725149	0.00957137
5805.95	-0.000934964	0.00971077
5814.95	-0.000896816	0.00956665
5823.95	-0.00091589	0.00966286
5832.95	-0.000858668	0.0095846
5841.95	-0.000896816	0.00955284
5850.95	-0.000858668	0.00951577
5859.95	-0.000687001	0.0095368
5868.95	-0.000954038	0.00965128
5877.95	-0.000858668	0.00958089
5886.95	-0.000896816	0.00966443
5895.95	-0.000858668	0.00955329
5904.95	-0.000954038	0.0094778
5913.95	-0.000782372	0.00939289
5922.95	-0.000877742	0.00944054
5931.95	-0.000782372	0.00954454
5940.95	-0.00082052	0.00953353
5949.95	-0.000896816	0.00965322
5958.95	-0.000877742	0.00948492
5967.95	-0.000763297	0.00958289
5976.95	-0.000973113	0.00941779
5985.95	-0.00091589	0.00944485
5994.95	-0.000706075	0.00949859
6003.95	-0.000877742	0.0094619
6012.95	-0.000896816	0.0095667
6021.95	-0.000954038	0.00940912
6030.95	-0.000801446	0.00959523
6039.95	-0.000687001	0.00947785
6048.95	-0.000763297	0.00950133
6057.95	-0.00082052	0.00937677
6066.95	-0.000858668	0.00943308
6075.95	-0.000725149	0.00945924
6084.95	-0.000877742	0.00948798
6093.95	-0.000763297	0.00952071
6102.95	-0.000858668	0.00951555
6111.95	-0.00082052	0.00947407
6120.95	-0.000667927	0.00946284
6129.95	-0.000782372	0.00942161
6138.95	-0.000801446	0.00941611
6147.95	-0.000954038	0.00937548
6156.95	-0.000934964	0.00949753
6165.95	-0.000725149	0.00942658
6174.95	-0.000896816	0.00946062
6183.95	-0.000954038	0.00941675
6192.95	-0.000839594	0.00940913
6201.95	-0.000877742	0.00930573
6210.95	-0.00091589	0.00937272
6219.95	-0.00091589	0.00934794
6228.95	-0.000782372	0.00931032
6237.95	-0.000992187	0.00956785
6246.95	-0.000934964	0.00938366
6255.95	-0.000801446	0.00946263
6264.95	-0.000782372	0.00933175
6273.95	-0.000992187	0.00938887
6282.95	-0.000954038	0.00925895
6291.95	-0.000858668	0.00935552
6300.95	-0.000782372	0.00945727
6309.95	-0.000744223	0.00929991
6318.95	-0.000782372	0.00943442
6327.95	-0.00082052	0.00930446
6336.95	-0.000744223	0.00933177
6345.95	-0.000839594	0.00928369
6354.95	-0.000858668	0.00930342
6363.95	-0.000839594	0.00935573
6372.95	-0.00091589	0.00932725
6381.95	-0.000954038	0.00942363
6390.95	-0.00091589	0.00931019
6399.95	-0.000858668	0.00931747
6408.95	-0.000934964	0.00926701
6417.95	-0.000744223	0.00918198
6426.95	-0.00082052	0.00924666
6435.95	-0.000934964	0.0093229
6444.95	-0.00101126	0.00932101
6453.95	-0.000877742	0.00924134
6462.95	-0.000858668	0.00934669
6471.95	-0.000954038	0.00921907
6480.95	-0.00091589	0.00926944
6489.95	-0.000706075	0.0091493
6498.95	-0.000858668	0.00912152
6507.95	-0.00082052	0.00918532
6516.95	-0.000725149	0.00917808
6525.95	-0.000992187	0.00936354
6534.95	-0.000934964	0.0091621
6543.95	-0.000782372	0.00928747
6552.95	-0.00091589	0.00922931
6561.95	-0.00091589	0.00919658
6570.95	-0.000858668	0.00917687
6579.95	-0.000877742	0.00906397
6588.95	-0.00103033	0.00920322
6597.95	-0.000839594	0.0092172
6606.95	-0.00106848	0.00930232
6615.95	-0.000839594	0.00918092
6624.95	-0.000801446	0.00917828
6633.95	-0.000782372	0.009107
6642.95	-0.000877742	0.00911069
6651.95	-0.00082052	0.0090821
6660.95	-0.000858668	0.00915504
6669.95	-0.000744223	0.00927998
6678.95	-0.000839594	0.0091296
6687.95	-0.000973113	0.00918195
6696.95	-0.00082052	0.00908374
6705.95	-0.000782372	0.00913684
6714.95	-0.000858668	0.00909108
6723.95	-0.000877742	0.00902335
6732.95	-0.00091589	0.00916586
6741.95	-0.000934964	0.00915683
6750.95	-0.00091589	0.00918756
6759.95	-0.000839594	0.00907157
6768.95	-0.00082052	0.00906917
6777.95	-0.000973113	0.00906494
6786.95	-0.000801446	0.00908737
6795.95	-0.000973113	0.00912802
6804.95	-0.000896816	0.0090989
6813.95	-0.00082052	0.00917198
6822.95	-0.000896816	0.00906923
6831.95	-0.000801446	0.00914673
6840.95	-0.000839594	0.00903026
6849.95	-0.000877742	0.00904723
6858.95	-0.000934964	0.00896506
6867.95	-0.000934964	0.00900384
6876.95	-0.000839594	0.00905041
6885.95	-0.000934964	0.00900428
6894.95	-0.000973113	0.0091393
6903.95	-0.000954038	0.00900011
6912.95	-0.000896816	0.00909317
6921.95	-0.000801446	0.00899248
6930.95	-0.000782372	0.00894371
6939.95	-0.00103033	0.0089598
6948.95	-0.000934964	0.00898046
6957.95	-0.000801446	0.00909955
6966.95	-0.000839594	0.00896434
6975.95	-0.00082052	0.00898115
6984.95	-0.000839594	0.00894341
6993.95	-0.000858668	0.00897311
7002.95	-0.000782372	0.00887741
7011.95	-0.000973113	0.00891661
7020.95	-0.000896816	0.00896884
7029.95	-0.000877742	0.00896332
7038.95	-0.000801446	0.00907063
7047.95	-0.000839594	0.00889551
7056.95	-0.000896816	0.00898643
7065.95	-0.000992187	0.00892948
7074.95	-0.000858668	0.00890513
7083.95	-0.000934964	0.00888595
7092.95	-0.000877742	0.00897136
7101.95	-0.000782372	0.00901754
7110.95	-0.000896816	0.0088062
7119.95	-0.000973113	0.00900732
7128.95	-0.000877742	0.0088702
7137.95	-0.000877742	0.00893991
7146.95	-0.000954038	0.0088831
7155.95	-0.000954038	0.00894056
7164.95	-0.000858668	0.00889087
7173.95	-0.000801446	0.00885914
7182.95	-0.000801446	0.00897462
7191.95	-0.00101126	0.00883553
7200.95	-0.000877742	0.0089263
7209.95	-0.000782372	0.00883425
7218.95	-0.000954038	0.00886313
7227.95	-0.00082052	0.00881359
7236.95	-0.000858668	0.00878291
7245.95	-0.000801446	0.00894181
7254.95	-0.00104941	0.00884797
7263.95	-0.000858668	0.00898458
7272.95	-0.00091589	0.00880737
7281.95	-0.000687001	0.00884149
7290.95	-0.000877742	0.00874062
7299.95	-0.000973113	0.00880789
7308.95	-0.000744223	0.00883329
7317.95	-0.000801446	0.00880358
7326.95	-0.000877742	0.00897813
7335.95	-0.000934964	0.00879178
7344.95	-0.000706075	0.00883997
7353.95	-0.00106848	0.00874088
7362.95	-0.000687001	0.00876578
7371.95	-0.000896816	0.00871293
7380.95	-0.000934964	0.00878023
7389.95	-0.00082052	0.00894402
7398.95	-0.000954038	0.00875101
7407.95	-0.000801446	0.00882695
7416.95	-0.000801446	0.0087267
7425.95	-0.000725149	0.0087956
7434.95	-0.000934964	0.0086778
7443.95	-0.000782372	0.00870971
7452.95	-0.000858668	0.00876051
7461.95	-0.000877742	0.00870896
7470.95	-0.000782372	0.00885363
7479.95	-0.000954038	0.00871261
7488.95	-0.000896816	0.00885462
7497.95	-0.00091589	0.00868792
7506.95	-0.00082052	0.0087185
7515.95	-0.000896816	0.00866744
7524.95	-0.000763297	0.0086894
7533.95	-0.000858668	0.00876783
7542.95	-0.000934964	0.00869812
7551.95	-0.000858668	0.00881476
7560.95	-0.000801446	0.00862324
7569.95	-0.000839594	0.00875281
7578.95	-0.000973113	0.00865108
7587.95	-0.000877742	0.008686
7596.95	-0.00091589	0.00868654
7605.95	-0.000896816	0.00872538
7614.95	-0.000782372	0.00881204
7623.95	-0.000954038	0.0086825
7632.95	-0.000934964	0.00877128
7641.95	-0.000839594	0.00866204
7650.95	-0.000839594	0.0086624
7659.95	-0.00082052	0.00859413
7668.95	-0.000877742	0.00864321
7677.95	-0.000954038	0.00870406
7686.95	-0.000801446	0.00865321
7695.95	-0.000858668	0.00873861
7704.95	-0.00082052	0.00861771
7713.95	-0.000954038	0.00863532
7722.95	-0.00082052	0.00864771
7731.95	-0.000801446	0.00855711
7740.95	-0.000934964	0.00863761
7749.95	-0.000687001	0.00858208
7758.95	-0.000896816	0.00871964
7767.95	-0.00091589	0.00866242
7776.95	-0.000954038	0.00863186
7785.95	-0.00103033	0.00856493
7794.95	-0.000839594	0.00857435
7803.95	-0.00082052	0.00853853
7812.95	-0.000896816	0.00852651
7821.95	-0.00082052	0.00860228
7830.95	-0.000782372	0.00859614
7839.95	-0.00091589	0.00868403
7848.95	-0.000896816	0.00853479
7857.95	-0.000877742	0.00859811
7866.95	-0.000782372	0.00853556
7875.95	-0.000839594	0.00849473
7884.95	-0.000725149	0.00855365
7893.95	-0.000782372	0.0085646
7902.95	-0.000744223	0.00871059
7911.95	-0.000954038	0.00852026
7920.95	-0.000992187	0.00854591
7929.95	-0.000858668	0.00858295
7938.95	-0.000954038	0.00851002
7947.95	-0.000839594	0.0084546
7956.95	-0.000839594	0.00849724
7965.95	-0.00082052	0.00850537
7974.95	-0.000896816	0.00846661
7983.95	-0.000954038	0.00856466
7992.95	-0.000782372	0.00851191
8001.95	-0.000896816	0.00864496
8010.95	-0.000858668	0.00838471
8019.95	-0.00082052	0.00848134
8028.95	-0.00082052	0.0084434
8037.95	-0.00082052	0.00834837
8046.95	-0.000839594	0.0086072
8055.95	-0.00082052	0.00847999
8064.95	-0.000973113	0.00857043
8073.95	-0.000858668	0.00847909
8082.95	-0.000801446	0.00848628
8091.95	-0.000858668	0.00844875
8100.95	-0.000839594	0.00839328
8109.95	-0.000934964	0.00845884
8118.95	-0.000954038	0.00840343
8127.95	-0.000782372	0.00862344
8136.95	-0.000801446	0.00840401
8145.95	-0.000782372	0.0085661
8154.95	-0.000839594	0.00846006
8163.95	-0.000706075	0.00840188
8172.95	-0.000858668	0.00840964
8181.95	-0.00082052	0.00837592
8190.95	-0.000877742	0.00851845
8199.95	-0.000896816	0.00840446
8208.95	-0.000801446	0.00847016
8217.95	-0.00091589	0.00837222
8226.95	-0.000896816	0.00842608
8235.95	-0.000839594	0.00830038
8244.95	-0.00091589	0.00836598
8253.95	-0.000801446	0.0084016
8262.95	-0.000973113	0.00844627
8271.95	-0.000973113	0.00842082
8280.95	-0.00082052	0.00838355
8289.95	-0.000877742	0.00843061
8298.95	-0.000934964	0.00834541
8307.95	-0.000954038	0.00833878
8316.95	-0.000896816	0.00832587
8325.95	-0.000706075	0.00833544
8334.95	-0.000896816	0.00837471
8343.95	-0.000973113	0.00831224
8352.95	-0.00091589	0.00842245
8361.95	-0.000858668	0.00830363
8370.95	-0.000801446	0.00830961
8379.95	-0.000839594	0.00824353
8388.95	-0.000801446	0.00829709
8397.95	-0.000839594	0.0083277
8406.95	-0.000839594	0.00832823
8415.95	-0.00082052	0.00840137
8424.95	-0.000896816	0.0083146
8433.95	-0.000934964	0.00837118
8442.95	-0.000858668	0.00827241
8451.95	-0.00082052	0.00832681
8460.95	-0.000877742	0.00824312
8469.95	-0.000934964	0.008274
8478.95	-0.000782372	0.00837411
8487.95	-0.00091589	0.00825954
8496.95	-0.00082052	0.00838508
8505.95	-0.000782372	0.00825732
8514.95	-0.000763297	0.00832033
8523.95	-0.000973113	0.00820853
8532.95	-0.00091589	0.00816219
8541.95	-0.000896816	0.00830569
8550.95	-0.000973113	0.00828133
8559.95	-0.000973113	0.00836236
8568.95	-0.000954038	0.00826092
8577.95	-0.00091589	0.00826007
8586.95	-0.000896816	0.00819779
8595.95	-0.000954038	0.00818163
8604.95	-0.00091589	0.00824697
8613.95	-0.000858668	0.00819166
8622.95	-0.000839594	0.00827991
8631.95	-0.00091589	0.00822785
8640.95	-0.00082052	0.00838842
8649.95	-0.000934964	0.00822369
8658.95	-0.000877742	0.00818465
8667.95	-0.000839594	0.00816315
8676.95	-0.000839594	0.00819997
8685.95	-0.000839594	0.00820487
8694.95	-0.000725149	0.00820488
8703.95	-0.00101126	0.00832898
8712.95	-0.000782372	0.00819996
8721.95	-0.00101126	0.00820154
8730.95	-0.000896816	0.00815209
8739.95	-0.000877742	0.00818734
8748.95	-0.000896816	0.00813878
8757.95	-0.000877742	0.00816148
8766.95	-0.000782372	0.00824132
8775.95	-0.00101126	0.00812629
8784.95	-0.000839594	0.00829928
8793.95	-0.00103033	0.008091
8802.95	-0.000801446	0.00815022
8811.95	-0.00091589	0.00812434
8820.95	-0.00091589	0.00811787
8829.95	-0.000801446	0.00813534
8838.95	-0.000725149	0.00813992
8847.95	-0.000934964	0.00831958
8856.95	-0.000973113	0.00812034
8865.95	-0.000954038	0.00823499
8874.95	-0.000725149	0.0081277
8883.95	-0.000934964	0.00810074
8892.95	-0.000896816	0.00809509
8901.95	-0.00091589	0.00804185
8910.95	-0.000763297	0.00817338
8919.95	-0.000896816	0.0080996
8928.95	-0.000934964	0.00821399
8937.95	-0.000725149	0.00810774
8946.95	-0.000725149	0.00808992
8955.95	-0.000782372	0.00803559
8964.95	-0.000992187	0.00802911
8973.95	-0.00082052	0.00806378
8982.95	-0.000877742	0.0080403
8991.95	-0.000896816	0.00819483
9000.95	-0.000992187	0.00808643
9009.95	-0.000858668	0.00818683
9018.95	-0.000801446	0.00798654
9027.95	-0.000973113	0.00799779
9036.95	-0.00082052	0.00808138
9045.95	-0.000744223	0.00808627
9054.95	-0.000896816	0.00815902
9063.95	-0.00082052	0.00814153
9072.95	-0.000954038	0.00817762
9081.95	-0.000934964	0.00817416
9090.95	-0.000992187	0.00802684
9099.95	-0.000858668	0.00798846
9108.95	-0.000877742	0.00799994
9117.95	-0.000896816	0.00805762
9126.95	-0.000782372	0.00802043
9135.95	-0.000858668	0.00811048
9144.95	-0.000801446	0.00804154
9153.95	-0.000896816	0.00810005
9162.95	-0.000934964	0.00801824
9171.95	-0.000782372	0.00809531
9180.95	-0.000954038	0.0079312
9189.95	-0.000877742	0.00803163
9198.95	-0.000725149	0.00805049
9207.95	-0.000934964	0.00796747
9216.95	-0.000782372	0.00805113
9225.95	-0.000954038	0.00798701
9234.95	-0.000858668	0.00804182
9243.95	-0.000934964	0.0079788
9252.95	-0.000782372	0.00792476
9261.95	-0.00082052	0.00791957
9270.95	-0.000877742	0.00792114
9279.95	-0.000934964	0.00797796
9288.95	-0.000839594	0.00794512
9297.95	-0.000973113	0.00816517
9306.95	-0.000992187	0.00796639
9315.95	-0.000782372	0.00797615
9324.95	-0.000934964	0.00791787
9333.95	-0.000973113	0.00787393
9342.95	-0.000687001	0.007968
9351.95	-0.000839594	0.00789391
9360.95	-0.000858668	0.00804747
9369.95	-0.000877742	0.00795695
9378.95	-0.000877742	0.00793535
9387.95	-0.000858668	0.00794698
9396.95	-0.000934964	0.00793609
9405.95	-0.000858668	0.00786616
9414.95	-0.00091589	0.00788789
9423.95	-0.000858668	0.00802933
9432.95	-0.000801446	0.00788968
9441.95	-0.000973113	0.00798153
9450.95	-0.000782372	0.00786944
9459.95	-0.000801446	0.00791758
9468.95	-0.00082052	0.00790619
9477.95	-0.000877742	0.00785782
9486.95	-0.000934964	0.00796198
9495.95	-0.00091589	0.00788503
9504.95	-0.000973113	0.00796997
9513.95	-0.00091589	0.00787561
9522.95	-0.000801446	0.00793257
9531.95	-0.00091589	0.00778886
9540.95	-0.000839594	0.00784404
9549.95	-0.000877742	0.007821
9558.95	-0.00101126	0.00790252
9567.95	-0.00103033	0.0079609
9576.95	-0.000782372	0.00785443
9585.95	-0.000877742	0.00792002
9594.95	-0.000954038	0.00781873
9603.95	-2.00103	-51.2459
9612.95	-2.00084	-29.4102
9621.95	-2.00089	-18.9527
9630.95	-2.00085	-14.2779
9639.95	-2.00091	-11.5681
9648.95	-2.00093	-9.84061
9657.95	-2.00078	-8.61287
9666.95	-2.00082	-7.71755
9675.95	-2.00064	-7.05045
9684.95	-2.00074	-6.50358
9693.95	-2.00084	-6.09448
9702.95	-2.00085	-5.73352
9711.95	-2.00085	-5.42851
9720.95	-2.00085	-5.16866
9729.95	-2.00078	-4.9588
9738.95	-2.00084	-4.78008
9747.95	-2.00087	-4.6091
9756.95	-2.00082	-4.46217
9765.95	-2.00082	-4.32205
9774.95	-2.00084	-4.20475
9783.95	-2.0008	-4.0901
9792.95	-2.00082	-3.99243
9801.95	-2.00084	-3.89814
9810.95	-2.00085	-3.79568
9819.95	-2.00091	-3.72554
9828.95	-2.00084	-3.67147
9837.95	-2.0008	-3.61762
9846.95	-2.00084	-3.55489
9855.95	-2.00091	-3.48952
9864.95	-2.00084	-3.4272
9873.95	-2.00087	-3.37619
9882.95	-2.0007	-3.32609
9891.95	-2.00082	-3.27976
9900.95	-2.00101	-3.22789
9909.95	-2.00093	-3.17308
9918.95	-2.00084	-3.15319
9927.95	-2.00074	-3.12061
9936.95	-2.00082	-3.09133
9945.95	-2.0008	-3.05848
9954.95	-2.00084	-3.03744
9963.95	-2.00087	-3.01215
9972.95	-2.0008	-2.98296
9981.95	-2.0007	-2.94092
9990.95	-2.0008	-2.91417
9999.95	-2.00084	-2.8964
10009	-2.00078	-2.85449
10018	-2.00091	-2.84325
10027	-2.00093	-2.826
10036	-2.00072	-2.80695
10045	-2.00076	-2.78918
10054	-2.00093	-2.76996
10063	-2.0008	-2.75205
10072	-2.00068	-2.73166
10081	-2.00078	-2.736
10090	-2.00072	-2.72618
10099	-2.00093	-2.71306
10108	-2.00082	-2.66837
10117	-2.00074	-2.65272
10126	-2.00084	-2.64621
10135	-2.00084	-2.63314
10144	-2.00082	-2.62296
10153	-2.00078	-2.60917
10162	-2.00097	-2.58927
10171	-2.00087	-2.58073
10180	-2.00078	-2.57205
10189	-2.00076	-2.56221
10198	-2.00084	-2.5532
10207	-2.00082	-2.54804
10216	-2.00082	-2.52887
10225	-2.00087	-2.54184
10234	-2.00093	-2.53131
10243	-2.00072	-2.50863
10252	-2.00084	-2.48456
10261	-2.00084	-2.48156
10270	-2.00074	-2.47605
10279	-2.00084	-2.46722
10288	-2.00076	-2.46084
10297	-2.00084	-2.45423
10306	-2.00087	-2.44557
10315	-2.00087	-2.42154
10324	-2.00085	-2.42574
10333	-2.0008	-2.42066
10342	-2.00087	-2.41371
10351	-2.0007	-2.42612
10360	-2.00087	-2.42669
10369	-2.00084	-2.40988
10378	-2.00074	-2.39274
10387	-2.00084	-2.39031
10396	-2.00089	-2.38171
10405	-2.00085	-2.37617
10414	-2.00082	-2.35313
10423	-2.00084	-2.35106
10432	-2.00085	-2.35074
10441	-2.0008	-2.3505
10450	-2.00082	-2.35266
10459	-2.00082	-2.34721
10468	-2.0008	-2.35283
10477	-2.00087	-2.35696
10486	-2.00078	-2.35626
10495	-2.0008	-2.34198
10504	-0.000858668	27.64
10513	-0.000839594	7.01412
10522	-0.000877742	3.47239
10531	-0.00082052	2.23301
10540	-0.000877742	1.63092
10549	-0.00082052	1.2828
10558	-0.00091589	1.06051
10567	-0.000858668	0.903395
10576	-0.000763297	0.791241
10585	-0.000782372	0.701948
10594	-0.000744223	0.634329
10603	-0.000896816	0.577123
10612	-0.000782372	0.530886
10621	-0.000896816	0.492277
10630	-0.000839594	0.456622
10639	-0.00091589	0.42898
10648	-0.000954038	0.403634
10657	-0.00101126	0.38294
10666	-0.000954038	0.362801
10675	-0.000877742	0.346058
10684	-0.000973113	0.330462
10693	-0.000954038	0.316492
10702	-0.000973113	0.304114
10711	-0.00082052	0.292566
10720	-0.000801446	0.282554
10729	-0.000725149	0.272697
10738	-0.000801446	0.264516
10747	-0.000858668	0.255566
10756	-0.00082052	0.2483
10765	-0.000687001	0.241221
10774	-0.000858668	0.234655
10783	-0.000896816	0.228691
10792	-0.000839594	0.222865
10801	-0.000954038	0.218075
10810	-0.000954038	0.21271
10819	-0.000839594	0.208342
10828	-0.000896816	0.203513
10837	-0.000763297	0.199305
10846	-0.000858668	0.195414
10855	-0.000858668	0.191553
10864	-0.000858668	0.188332
10873	-0.00082052	0.184699
10882	-0.000782372	0.181824
10891	-0.000839594	0.178324
10900	-0.000877742	0.175545
10909	-0.000858668	0.172674
10918	-0.000839594	0.169832
10927	-0.000706075	0.167453
10936	-0.000934964	0.164818
10945	-0.000954038	0.162928
10954	-0.000801446	0.16031
10963	-0.000839594	0.158515
10972	-0.000877742	0.156038
10981	-0.00091589	0.153939
10990	-0.00082052	0.151925
10999	-0.000801446	0.149983
11008	-0.000782372	0.148232
11017	-0.000954038	0.146537
11026	-0.000744223	0.145161
11035	-0.000801446	0.14308
11044	-0.000782372	0.141702
11053	-0.000992187	0.140013
11062	-0.000839594	0.13861
11071	-0.000877742	0.137103
11080	-0.000801446	0.135383
11089	-0.000744223	0.134562
11098	-0.000782372	0.132952
11107	-0.000839594	0.131826
11116	-0.000954038	0.130431
11125	-0.00082052	0.129166
11134	-0.000782372	0.128026
11143	-0.00091589	0.126808
11152	-0.000896816	0.125633
11161	-0.000801446	0.12453
11170	-0.00082052	0.123718
11179	-0.000839594	0.122313
11188	-0.00082052	0.121485
11197	-0.000877742	0.12031
11206	-0.000858668	0.119233
11215	-0.000992187	0.118408
11224	-0.000763297	0.117455
11233	-0.000667927	0.116743
11242	-0.000877742	0.11559
11251	-0.000877742	0.114878
11260	-0.000858668	0.113764
11269	-0.00091589	0.113007
11278	-0.000801446	0.11211
11287	-0.000858668	0.111075
11296	-0.00091589	0.110485
11305	-0.000725149	0.109611
11314	-0.000877742	0.109142
11323	-0.000839594	0.10806
11332	-0.000667927	0.10746
11341	-0.000744223	0.106506
11350	-0.00082052	0.105774
11359	-0.000725149	0.105009
11368	-0.00082052	0.104407
11377	-0.000744223	0.103923
11386	-0.000725149	0.103131
11395	-0.000839594	0.102567
11404	-0.000896816	0.101514
11413	-0.000858668	0.101125
11422	-0.000896816	0.100294
11431	-0.000934964	0.0996932
11440	-0.000782372	0.0991169
11449	-0.000954038	0.0984212
11458	-0.000877742	0.0981107
11467	-0.00091589	0.097279
11476	-0.000934964	0.0968692
11485	-0.00082052	0.0962169
11494	-0.00091589	0.0955408
11503	-0.000877742	0.095207
11512	-0.000858668	0.0944902
11521	-0.000934964	0.0941485
11530	-0.000858668	0.0933922
11539	-0.000858668	0.0930963
11548	-0.000934964	0.092409
11557	-0.000858668	0.0919469
11566	-0.000954038	0.0914683
11575	-0.00103033	0.0909405
11584	-0.000839594	0.0905088
11593	-0.000934964	0.089991
11602	-0.000839594	0.0898086
11611	-0.000973113	0.0890211
11620	-0.000954038	0.0886728
11629	-0.000934964	0.0881747
11638	-0.000858668	0.0876291
11647	-0.000934964	0.0871122
11656	-0.000896816	0.0867284
11665	-0.000858668	0.0864115
11674	-0.000934964	0.0859287
11683	-0.000896816	0.0856711
11692	-0.00082052	0.0849583
11701	-0.000877742	0.0846841
11710	-0.00082052	0.0840959
11719	-0.000954038	0.0836323
11728	-0.00091589	0.083431
11737	-0.000973113	0.0828847
11746	-0.000801446	0.0827681
11755	-0.000877742	0.0821941
11764	-0.000858668	0.0819656
11773	-0.00091589	0.081381
11782	-0.000896816	0.0808772
11791	-0.000896816	0.080628
11800	-0.000954038	0.0802842
11809	-0.000782372	0.0800375
11818	-0.000877742	0.0795946
11827	-0.000801446	0.0794064
11836	-0.000763297	0.0788522
11845	-0.000744223	0.0785388
11854	-0.000973113	0.0782522
11863	-0.000896816	0.077918
11872	-0.000877742	0.0776045
11881	-0.000801446	0.0772567
11890	-0.000934964	0.0772249
11899	-0.000934964	0.0766191
11908	-0.00082052	0.0765237
11917	-0.000992187	0.0760469
11926	-0.000992187	0.0757057
11935	-0.00091589	0.0752998
11944	-0.00082052	0.0751397
11953	-0.00101126	0.0749495
11962	-0.000858668	0.074554
11971	-0.000954038	0.0744897
11980	-0.000877742	0.0739873
11989	-0.000992187	0.0737386
11998	-0.000763297	0.0733565
12007	-0.000839594	0.0730812
12016	-0.000934964	0.0727748
12025	-0.000801446	0.0724483
12034	-0.000954038	0.0723675
12043	-0.000839594	0.0719509
12052	-0.00082052	0.0718495
12061	-0.00082052	0.071447
12070	-0.000934964	0.0711937
12079	-0.000725149	0.0709017
12088	-0.000896816	0.0705155
12097	-0.00082052	0.0703867
12106	-0.00082052	0.0699588
12115	-0.00082052	0.070171
12124	-0.000858668	0.0695873
12133	-0.000934964	0.0693919
12142	-0.000858668	0.0691186
12151	-0.000801446	0.0689213
12160	-0.000763297	0.06873
12169	-0.00082052	0.0684102
12178	-0.00082052	0.0682743
12187	-0.000992187	0.0679352
12196	-0.000801446	0.0679352
12205	-0.000934964	0.0675463
12214	-0.000839594	0.0673005
12223	-0.000896816	0.0669851
12232	-0.000973113	0.0667329
12241	-0.000839594	0.0665913
12250	-0.000973113	0.0663389
12259	-0.000973113	0.0664301
12268	-0.000954038	0.0660339
12277	-0.000877742	0.0659373
12286	-0.000763297	0.0655708
12295	-0.000973113	0.0653556
12304	-0.000801446	0.0651922
12313	-0.00082052	0.0650143
12322	-0.000877742	0.0648926
12331	-0.00091589	0.0645694
12340	-0.000801446	0.0644907
12349	-0.00082052	0.0641014
12358	-0.00101126	0.0639836
12367	-0.000858668	0.0637438
12376	-0.000896816	0.0635358
12385	-0.000801446	0.0634157
12394	-0.00091589	0.0633065
12403	-0.000782372	0.0632552
12412	-0.000954038	0.0628438
12421	-0.000858668	0.0627377
12430	-0.00082052	0.0624326
12439	-0.000896816	0.0622166
12448	-0.000877742	0.0620595
12457	-0.000877742	0.0618905
12466	-0.000839594	0.0618679
12475	-0.000744223	0.0615914
12484	-0.000877742	0.0616334
12493	-0.000839594	0.0613844
12502	-0.000744223	0.061051
12511	-0.000992187	0.0608636
12520	-0.000858668	0.060679
12529	-0.00091589	0.0604882
12538	-0.000763297	0.0603379
12547	-0.000839594	0.0603774
12556	-0.000954038	0.0600538
12565	-0.000858668	0.0600048
12574	-0.000763297	0.0597009
12583	-0.000801446	0.0596712
12592	-0.00091589	0.0594736
12601	-0.000877742	0.059225
12610	-0.000858668	0.0592795
12619	-0.00082052	0.0590309
12628	-0.000858668	0.0590745
12637	-0.000877742	0.0586696
12646	-0.000744223	0.0586573
12655	-0.000896816	0.058383
12664	-0.00101126	0.0580836
12673	-0.000877742	0.0581052
12682	-0.000877742	0.0579833
12691	-0.000725149	0.0579912
12700	-0.000839594	0.0577175
12709	-0.000896816	0.0576668
12718	-0.000877742	0.0573537
12727	-0.000896816	0.0572894
12736	-0.00101126	0.057223
12745	-0.00091589	0.0569299
12754	-0.000839594	0.0569296
12763	-0.00091589	0.0566727
12772	-0.000782372	0.0567559
12781	-0.000725149	0.0564387
12790	-0.000896816	0.0564151
12799	-0.00082052	0.0561855
12808	-0.000858668	0.0559436
12817	-0.000896816	0.0558877
12826	-0.000896816	0.0556461
12835	-0.000896816	0.056001
12844	-0.000934964	0.0555765
12853	-0.000877742	0.055435
12862	-0.000896816	0.0552138
12871	-0.000725149	0.0552084
12880	-0.000973113	0.0549169
12889	-0.000763297	0.0547863
12898	-0.000801446	0.0547779
12907	-0.000763297	0.0545928
12916	-0.000954038	0.054737
12925	-0.00091589	0.0543695
12934	-0.000763297	0.0543872
12943	-0.000954038	0.0540784
12952	-0.00082052	0.0540622
12961	-0.000992187	0.0539241
12970	-0.000706075	0.0538206
12979	-0.000782372	0.053836
12988	-0.000973113	0.053583
12997	-0.000667927	0.0536719
13006	-0.000858668	0.0533363
13015	-0.000725149	0.0532079
13024	-0.000954038	0.0530091
13033	-0.000782372	0.0529298
13042	-0.000973113	0.0529274
13051	-0.000934964	0.05285
13060	-0.000858668	0.0527878
13069	-0.000992187	0.0525759
13078	-0.000973113	0.0525593
13087	-0.00091589	0.0523257
13096	-0.000896816	0.0521397
13105	-0.000801446	0.0521674
13114	-0.000725149	0.0520549
13123	-0.000801446	0.0520825
13132	-0.000782372	0.0518337
13141	-0.000896816	0.0518346
13150	-0.000896816	0.0515122
13159	-0.000934964	0.0515189
13168	-0.000973113	0.0513459
13177	-0.000934964	0.0512491
13186	-0.000839594	0.0512636
13195	-0.000877742	0.0510601
13200	-0.00082052	0.0509584