File: Data_09_Experiment/CA_001_C01.txt
time/s	Ewe/V	<I>/mA
1	1.49927	197.781
40	1.49925	11.2768
79	1.49919	8.83419
118	1.49937	8.24334
157	1.49916	8.17362
196	1.49942	8.26692
235	1.49927	8.46946
274	1.49923	8.69438
313	1.49939	8.91714
352	1.49935	9.09575
391	1.49931	9.26558
430	1.4994	9.39381
469	1.49933	9.4874
508	1.49916	9.54338
547	1.49939	9.56024
586	1.49931	9.5554
625	1.49916	9.51898
664	1.49935	9.45902
703	1.49933	9.36856
742	1.49929	9.28935
781	1.49939	9.18256
820	1.49933	9.05434
859	1.49912	8.92897
898	1.49931	8.79801
937	1.49929	8.63825
976	1.49919	8.47388
1015	1.49929	8.31445
1054	1.49939	8.16941
1093	1.49944	8.01492
1132	1.49929	7.87056
1171	1.49927	7.71751
1210	1.49946	7.57052
1249	1.49919	7.45673
1288	1.49931	7.32119
1327	1.49931	7.18689
1366	1.49933	7.05371
1405	1.49931	6.95081
1444	1.49921	6.82383
1483	1.49939	6.70923
1522	1.49923	6.58702
1561	1.49923	6.48617
1600	1.49923	6.38977
1639	1.49925	6.28294
1678	1.49927	6.18337
1717	1.49937	6.08364
1756	1.49927	6.00798
1795	1.49933	5.92659
1833.95	-0.00109786	-0.67262
1872.95	-0.00109786	0.380635
1911.95	-0.00109786	0.453682
1950.95	-0.00102156	0.384464
1989.95	-0.00102156	0.313078
2028.95	-0.00104063	0.251255
2067.95	-0.00104063	0.212526
2106.95	-0.00104063	0.164322
2145.95	-0.00111693	0.137337
2184.95	-0.00105971	0.120539
2223.95	-0.00100249	0.122967
2262.95	-0.00104063	0.109987
2301.95	-0.00100249	0.0976682
2340.95	-0.00102156	0.0892495
2379.95	-0.000907116	0.0881496
2418.95	-0.00104063	0.0855155
2457.95	-0.00109786	0.0792482
2496.95	-0.00113601	0.0696181
2535.95	-0.000945264	0.0657807
2574.95	-0.000868968	0.0732658
2613.95	-0.00109786	0.066741
2652.95	-0.000964338	0.0628371
2691.95	-0.00117415	0.0562811
2730.95	-0.00104063	0.0644485
2769.95	-0.00107878	0.0619545
2808.95	-0.00104063	0.0541026
2847.95	-0.00107878	0.0516863
2886.95	-0.000907116	0.0561668
2925.95	-0.000964338	0.057548
2964.95	-0.000907116	0.0496305
3003.95	-0.00105971	0.0497102
3042.95	-0.000983412	0.0477227
3081.95	-0.00111693	0.0513864
3120.95	-0.00104063	0.0490958
3159.95	-0.00104063	0.0451144
3198.95	-0.00113601	0.0433976
3237.95	-0.000945264	0.0454688
3276.95	-0.00105971	0.0473525
3315.95	-0.00107878	0.0428228
3354.95	-0.00109786	0.0406528
3393.95	-0.00104063	0.0417585
3432.95	-0.00102156	0.0420793
3471.95	-0.00109786	0.041364
3510.95	-0.00115508	0.0373462
3549.95	-0.000983412	0.037039
3588.95	-0.00109786	0.0418029
3627.95	-0.00113601	0.0394273
3666.95	-0.00107878	0.0369487
3705.95	-0.000964338	0.0339196
3744.95	-0.000964338	0.0387701
3783.95	-0.000945264	0.0391847
3822.95	-0.00107878	0.037578
3861.95	-0.00113601	0.0377166
3900.95	-0.000945264	0.0378662
3939.95	-0.00105971	0.0399099
3978.95	-0.000964338	0.0396387
4017.95	-0.00092619	0.0350958
4056.95	-0.00107878	0.0347594
4095.95	-0.000945264	0.0394853
4134.95	-0.000983412	0.0366109
4173.95	-0.000945264	0.0359939
4212.95	-0.00111693	0.0347076
4251.95	-0.00115508	0.0379455
4290.95	-0.000983412	0.035736
4329.95	-0.000983412	0.033481
4368.95	-0.00117415	0.0302131
4407.95	-0.000983412	0.0320664
4446.95	-0.00107878	0.0350143
4485.95	-0.000983412	0.0357995
4524.95	-0.00100249	0.031386
4563.95	-0.00104063	0.03236
4602.95	-0.000983412	0.0331744
4641.95	-0.000964338	0.0332905
4680.95	-0.00109786	0.0316604
4719.95	-0.00107878	0.0307866
4758.95	-0.00105971	0.0347112
4797.95	-0.00100249	0.035243
4836.95	-0.00105971	0.0327849
4875.95	-0.00102156	0.0304196
4914.95	-0.00107878	0.03509
4953.95	-0.000945264	0.0359066
4992.95	-0.00102156	0.0326177
5031.95	-0.000888042	0.0306693
5070.95	-0.000983412	0.0314496
5109.95	-0.00102156	0.0334178
5148.95	-0.000907116	0.0308192
5187.95	-0.00102156	0.0311447
5226.95	-0.000945264	0.0316451
5265.95	-0.00109786	0.0325341
5304.95	-0.00102156	0.0307527
5343.95	-0.000964338	0.030067
5382.95	-0.00102156	0.0297821
5421.95	-0.000945264	0.0334289
5460.95	-0.00105971	0.0313725
5499.95	-0.00102156	0.0310724
5538.95	-0.000945264	0.0296452
5577.95	-0.00111693	0.0293387
5616.95	-0.00102156	0.0313274
5655.95	-0.00102156	0.0320627
5694.95	-0.00104063	0.0308374
5733.95	-0.00109786	0.0315445
5772.95	-0.00111693	0.0308596
5811.95	-0.00105971	0.0315732
5850.95	-0.00107878	0.0299714
5889.95	-0.00100249	0.0300258
5928.95	-0.00113601	0.0325924
5967.95	-0.000983412	0.0311005
6006.95	-0.000983412	0.0291122
6045.95	-0.00102156	0.0295662
6084.95	-0.00100249	0.0307321
6123.95	-0.000983412	0.0304849
6162.95	-0.000945264	0.0295393
6201.95	-0.00111693	0.0289036
6240.95	-0.000907116	0.028544
6279.95	-0.00107878	0.0296778
6318.95	-0.00113601	0.0297911
6357.95	-0.00102156	0.0286672
6396.95	-0.00104063	0.028567
6435.95	-0.000907116	0.030715
6474.95	-0.00107878	0.0288767
6513.95	-0.00107878	0.0281747
6552.95	-0.00109786	0.0287899
6591.95	-0.00104063	0.029045
6630.95	-0.00111693	0.0297203
6669.95	-0.00111693	0.0296536
6708.95	-0.00104063	0.0292535
6747.95	-0.00111693	0.0293091
6786.95	-0.00115508	0.0299701
6825.95	-0.00100249	0.0289167
6864.95	-0.00100249	0.0289899
6903.95	-0.00100249	0.0280104
6942.95	-0.00104063	0.0295077
6981.95	-0.00109786	0.0281757
7020.95	-0.00123138	0.0273906
7059.95	-0.00107878	0.0271932
7098.95	-0.00107878	0.0285935
7137.95	-0.00105971	0.0285471
7176.95	-0.00107878	0.027902
7215.95	-0.00105971	0.0281618
7254.95	-0.00102156	0.0298931
7293.95	-0.000907116	0.0300138
7332.95	-0.00102156	0.0286331
7371.95	-0.00105971	0.028143
7410.95	-0.00102156	0.0269104
7449.95	-0.00105971	0.0293075
7488.95	-0.00105971	0.0284388
7527.95	-0.00109786	0.0277375
7566.95	-0.000964338	0.0276677
7605.95	-0.00107878	0.0289324
7644.95	-0.00111693	0.0288961
7683.95	-0.00102156	0.0291569
7722.95	-0.00105971	0.0277956
7761.95	-0.000983412	0.0278187
7800.95	-0.00107878	0.0288432
7839.95	-0.00104063	0.028406
7878.95	-0.000945264	0.0278922
7917.95	-0.00100249	0.027704
7956.95	-0.00102156	0.0288871
7995.95	-0.000945264	0.0280633
8034.95	-0.00111693	0.0280088
8073.95	-0.000964338	0.0274239
8112.95	-0.00105971	0.0284011
8151.95	-0.00100249	0.028945
8190.95	-0.00111693	0.0277223
8229.95	-0.00104063	0.0278616
8268.95	-0.00100249	0.0281637
8307.95	-0.00109786	0.0293929
8346.95	-0.00105971	0.0285023
8385.95	-0.000907116	0.0279083
8424.95	-0.00102156	0.0273473
8463.95	-0.00100249	0.0278466
8502.95	-0.00105971	0.0280238
8541.95	-0.000983412	0.0285185
8580.95	-0.00111693	0.0271567
8619.95	-0.00105971	0.029104
8658.95	-0.00104063	0.0279375
8697.95	-0.00100249	0.0277264
8736.95	-0.00100249	0.0273542
8775.95	-0.00115508	0.0279173
8814.95	-0.00109786	0.0286235
8853.95	-0.00105971	0.0279457
8892.95	-0.00104063	0.0278366
8931.95	-0.00102156	0.0276751
8970.95	-0.00105971	0.0283022
9009.95	-0.00109786	0.0273583
9048.95	-0.00119323	0.0267892
9087.95	-0.00104063	0.0269118
9126.95	-0.00102156	0.027533
9165.95	-0.000964338	0.0276726
9204.95	-0.00100249	0.0271978
9243.95	-0.00105971	0.0270625
9282.95	-0.000983412	0.0276441
9321.95	-0.00105971	0.0279251
9360.95	-0.00105971	0.0273186
9399.95	-0.00105971	0.027371
9438.95	-0.00092619	0.0270679
9477.95	-0.000964338	0.0278844
9516.95	-0.000964338	0.0266698
9555.95	-0.00100249	0.0266535
9594.95	-0.00111693	0.0265277
9633.95	-0.00100249	0.0279722
9672.95	-0.00102156	0.0271446
9711.95	-0.00109786	0.0269164
9750.95	-0.00105971	0.0262109
9789.95	-0.00109786	0.0272577
9828.95	-0.000907116	0.0271329
9867.95	-0.000964338	0.026976
9906.95	-0.000888042	0.0269126
9945.95	-0.00100249	0.0268023
9984.95	-0.00104063	0.0265852
10024	-0.000907116	0.0260756
10063	-0.00104063	0.0261336
10102	-0.00107878	0.0261199
10141	-0.00104063	0.0271609
10180	-0.000983412	0.0265778
10219	-0.00102156	0.0265203
10258	-0.00102156	0.0264412
10297	-0.00102156	0.0267586
10336	-0.000868968	0.0268766
10375	-0.000983412	0.0263503
10414	-0.00104063	0.0263012
10453	-0.00104063	0.0265464
10492	-0.000983412	0.0266797
10531	-0.00113601	0.0262345
10570	-0.000983412	0.0262653
10609	-0.000945264	0.0260908
10648	-0.00104063	0.026951
10687	-0.00107878	0.0261545
10726	-0.00104063	0.0262443
10765	-0.00104063	0.0258509
10804	-2.00085	-129.132
10843	-2.00086	-41.6483
10882	-2.00094	-26.8134
10921	-2.00092	-19.4522
10960	-2.00077	-15.1275
10999	-2.00073	-12.4024
11038	-2.00075	-10.5312
11077	-2.00079	-9.21816
11116	-2.00075	-8.27417
11155	-2.00086	-7.58367
11194	-2.00083	-7.00794
11233	-2.0009	-6.55076
11272	-2.00073	-6.18016
11311	-2.00088	-5.89949
11350	-2.00096	-5.64071
11389	-2.00079	-5.41257
11428	-2.00085	-5.2248
11467	-2.00092	-5.07612
11506	-2.00075	-4.94982
11545	-2.00081	-4.8309
11584	-2.00098	-4.72775
11623	-2.00086	-4.62798
11662	-2.00073	-4.56002
11701	-0.00100249	140.312
11740	-0.00107878	2.95533
11779	-0.00083082	1.90006
11818	-0.00100249	1.57605
11857	-0.00102156	1.39615
11896	-0.00117415	1.29306
11935	-0.00105971	1.21875
11974	-0.00115508	1.18074
12013	-0.00100249	1.13505
12052	-0.00102156	1.07879
12091	-0.00107878	1.05938
12130	-0.000907116	1.02676
12169	-0.00092619	0.995823
12208	-0.0012123	0.956787
12247	-0.00105971	0.936276
12286	-0.00104063	0.913727
12325	-0.00115508	0.898277
12364	-0.00104063	0.867106
12403	-0.00109786	0.843296
12442	-0.000945264	0.830332
12481	-0.00102156	0.815755
12520	-0.00125045	0.800717
12559	-0.000983412	0.778573
12598	-0.00107878	0.764388
12637	-0.00102156	0.749246
12676	-0.00111693	0.74231
12715	-0.000983412	0.721031
12754	-0.00092619	0.709187
12793	-0.00105971	0.696881
12832	-0.00102156	0.689961
12871	-0.00104063	0.674105
12910	-0.00113601	0.66026
12949	-0.00109786	0.649411
12988	-0.00102156	0.640977
13027	-0.000964338	0.631826
13066	-0.00104063	0.617161
13105	-0.00111693	0.607399
13144	-0.00105971	0.598193
13183	-0.000945264	0.592421
13222	-0.00104063	0.578423
13261	-0.00109786	0.569415
13300	-0.000945264	0.560949
13339	-0.00109786	0.556205
13378	-0.000945264	0.544791
13417	-0.00104063	0.535492
13456	-0.00105971	0.527145
13495	-0.00102156	0.52156
13534	-0.00100249	0.514609
13573	-0.00111693	0.504632
13612	-0.00104063	0.497053
13651	-0.000907116	0.48962
13690	-0.00109786	0.483682
13729	-0.00104063	0.474119
13768	-0.00105971	0.466446
13807	-0.00107878	0.459313
13846	-0.00107878	0.454863
13885	-0.00104063	0.445888
13924	-0.00105971	0.438576
13963	-0.00104063	0.431743
14002	-0.00100249	0.426317
14041	-0.00113601	0.420247
14080	-0.00105971	0.412088
14119	-0.000907116	0.405086
14158	-0.00105971	0.398126
14197	-0.00105971	0.39401
14236	-0.000964338	0.385304
14275	-0.00104063	0.37884
14314	-0.00100249	0.371898
14353	-0.00109786	0.368123
14392	-0.00102156	0.359973
14431	1.49939	30.3876
14470	1.4994	19.3853
14509	1.49919	15.2588
14548	1.4995	12.9371
14587	1.49937	11.3826
14626	1.49935	10.2674
14665	1.49927	9.45916
14704	1.49921	8.80934
14743	1.49923	8.29575
14782	1.49933	7.86622
14821	1.49931	7.47808
14860	1.49921	7.15958
14899	1.49923	6.88658
14938	1.49935	6.62876
14977	1.49923	6.41354
15016	1.49914	6.20499
15055	1.49925	6.01265
15094	1.49925	5.8615
15133	1.4991	5.69196
15172	1.49931	5.54607
15211	1.49921	5.39682
15250	1.49935	5.28543
15289	1.49942	5.18557
15328	1.49935	5.08139
15367	1.49935	4.99486
15406	1.49927	4.89752
15445	1.49933	4.79008
15484	1.49933	4.69264
15523	1.49919	4.59637
15562	1.49927	4.50023
15601	1.49937	4.43102
15640	1.49935	4.35058
15679	1.49925	4.27501
15718	1.49946	4.1892
15757	1.49918	4.13469
15796	1.49935	4.0701
15835	1.49919	4.00804
15874	1.49937	3.93763
15913	1.49935	3.88301
15952	1.49931	3.83492
15991	1.49923	3.77631
16030	1.49931	3.71842
16069	1.49942	3.65232
16108	1.49923	3.61593
16147	1.49933	3.56509
16186	1.49929	3.51567
16225	-0.00100249	-1.35457
16264	-0.000907116	-0.0716709
16303	-0.000907116	0.0810648
16342	-0.00107878	0.093821
16381	-0.000983412	0.0968847
16420	-0.00111693	0.0891529
16459	-0.00113601	0.0809071
16498	-0.000983412	0.0779355
16537	-0.00107878	0.0796718
16576	-0.000868968	0.0770369
16615	-0.00102156	0.0729352
16654	-0.00104063	0.0678924
16693	-0.00100249	0.0685175
16732	-0.00109786	0.0700046
16771	-0.00111693	0.0664985
16810	-0.00104063	0.0641305
16849	-0.00115508	0.0616689
16888	-0.00111693	0.0626387
16927	-0.00117415	0.0624847
16966	-0.000983412	0.0598293
17005	-0.00111693	0.0565142
17044	-0.00107878	0.060735
17083	-0.00107878	0.0607943
17122	-0.00119323	0.0556257
17161	-0.00100249	0.0546772
17200	-0.000945264	0.0575793
17239	-0.00117415	0.0567509
17278	-0.00102156	0.054766
17317	-0.000888042	0.0533035
17356	-0.000945264	0.0531955
17395	-0.000983412	0.0553185
17434	-0.00107878	0.0537013
17473	-0.000964338	0.054076
17512	-0.00105971	0.0547623
17551	-0.00104063	0.0567782
17590	-0.00092619	0.0531286
17629	-0.000983412	0.0512993
17668	-0.00111693	0.0501315
17707	-0.00100249	0.0514926
17746	-0.00107878	0.0525363
17785	-0.000983412	0.0525742
17824	-0.00105971	0.0511543
17863	-0.00105971	0.0490782
17902	-0.000868968	0.0514838
17941	-0.00109786	0.0509366
17980	-0.000983412	0.0475155
18019	-0.000983412	0.0471981
18058	-0.00107878	0.0501716
18097	-0.00100249	0.0488899
18136	-0.000964338	0.0471115
18175	-0.00107878	0.0477558
18214	-0.00100249	0.0487553
18253	-0.00111693	0.0494288
18292	-0.00104063	0.0471327
18331	-0.000907116	0.0473359
18370	-0.00104063	0.0477344
18409	-0.00100249	0.0481425
18448	-0.00100249	0.0459511
18487	-0.00117415	0.0457556
18526	-0.00107878	0.0463415
18565	-0.00102156	0.047688
18604	-0.00105971	0.0456412
18643	-0.000983412	0.0447427
18682	-0.00109786	0.0441009
18721	-0.00105971	0.0452566
18760	-0.00107878	0.0445423
18799	-0.00123138	0.0436625
18838	-0.00119323	0.0430949
18877	-0.00105971	0.0432317
18916	-0.000964338	0.044424
18955	-0.00105971	0.0431466
18994	-0.000983412	0.0422895
19033	-0.00111693	0.0418293
19072	-0.00107878	0.0431383
19111	-0.00102156	0.0424701
19150	-0.00107878	0.0426254
19189	-0.00109786	0.041148
19228	-0.00102156	0.0426091
19267	-0.00107878	0.0419979
19306	-0.00104063	0.0406142
19345	-0.00109786	0.0405505
19384	-0.00102156	0.0410883
19423	-0.00092619	0.0415797
19462	-0.00105971	0.0396373
19501	-0.00102156	0.0381689
19540	-0.00100249	0.0385337
19579	-0.00111693	0.041505
19618	-0.000983412	0.0393695
19657	-0.00111693	0.0378477
19696	-0.00104063	0.0370459
19735	-0.00107878	0.0375474
19774	-0.000945264	0.0365224
19813	-0.00102156	0.0362449
19852	-0.00111693	0.0364142
19891	-0.00104063	0.0367432
19930	-0.000983412	0.0377195
19969	-0.000907116	0.0362288
20008	-0.00111693	0.0358563
20047	-0.00102156	0.035796
20086	-0.000983412	0.0372481
20125	-0.000964338	0.03577
20164	-0.00111693	0.0358446
20203	-0.00102156	0.0349457
20242	-0.00092619	0.0357185
20281	-0.000868968	0.0352092
20320	-0.00107878	0.0343713
20359	-0.00109786	0.0347102
20398	-0.000964338	0.0349579
20437	-0.00100249	0.0362476
20476	-0.000964338	0.0351796
20515	-0.00104063	0.0342476
20554	-0.00113601	0.0335964
20593	-0.000983412	0.0351842
20632	-0.00111693	0.0335808
20671	-0.000964338	0.0335297
20710	-0.00102156	0.0339367
20749	-0.00105971	0.0348357
20788	-0.000945264	0.0338871
20827	-0.00104063	0.0330863
20866	-0.000964338	0.0326008
20905	-0.000983412	0.0325605
20944	-0.000983412	0.0337705
20983	-0.00107878	0.0330222
21022	-0.00100249	0.0329022
21061	-0.00100249	0.0320839
21100	-0.00104063	0.0331391
21139	-0.00111693	0.0315883
21178	-0.00100249	0.0321071
21217	-0.00105971	0.0319178
21256	-0.00104063	0.0327511
21295	-0.000964338	0.031868
21334	-0.00111693	0.0318495
21373	-0.00104063	0.0317656
21412	-0.00102156	0.0321068
21451	-0.000868968	0.0323972
21490	-0.00113601	0.0314019
21529	-0.000983412	0.0315151
21568	-0.00092619	0.0311164
21607	-0.00102156	0.0324211
21646	-0.00105971	0.0311365
21685	-0.00111693	0.0310382
21724	-0.000945264	0.0308508
21763	-0.00102156	0.031643
21802	-0.000907116	0.0307637
21841	-0.000907116	0.03004
21880	-0.00111693	0.0300043
21919	-0.00104063	0.030665
21958	-0.000945264	0.0305564
21997	-0.00104063	0.0298343
22036	-0.000888042	0.0295427
22075	-0.00104063	0.029405
22114	-0.00102156	0.030409
22153	-0.00104063	0.029374
22192	-0.00100249	0.0291285
22231	-0.00105971	0.0290275
22270	-0.00109786	0.0301841
22309	-0.00100249	0.0293244
22348	-0.00107878	0.0291736
22387	-0.000907116	0.0288244
22426	-0.000983412	0.0289293
22465	-0.00105971	0.0289723
22504	-0.00102156	0.0279654
22543	-0.00113601	0.0279018
22582	-0.00100249	0.0277819
22621	-0.00104063	0.0287545
22660	-0.00111693	0.0277712
22699	-0.00102156	0.0275319
22738	-0.00105971	0.0280692
22777	-0.000888042	0.0289185
22816	-0.00104063	0.0276124
22855	-0.00102156	0.0273754
22894	-0.00102156	0.0270407
22933	-0.000983412	0.0272141
22972	-0.000945264	0.0270887
23011	-0.00102156	0.0268077
23050	-0.000983412	0.0270808
23089	-0.00119323	0.0266494
23128	-0.00111693	0.027748
23167	-0.00111693	0.0265732
23206	-0.00111693	0.0264655
23245	-0.00104063	0.0261849
23284	-0.00107878	0.0273208
23323	-0.000945264	0.0262052
23362	-0.00100249	0.0259768
23401	-0.00107878	0.0260019
23440	-0.000945264	0.0265742
23479	-0.00102156	0.0264156
23518	-0.00119323	0.0257656
23557	-0.00100249	0.0256006
23596	-0.00104063	0.0259203
23635	-0.000945264	0.0266755
23674	-0.00104063	0.026024
23713	-0.000983412	0.0261717
23752	-0.00107878	0.0259309
23791	-0.00092619	0.0262944
23830	-0.00107878	0.0251588
23869	-0.00092619	0.0255166
23908	-0.000945264	0.0254681
23947	-0.00102156	0.0259853
23986	-0.000983412	0.0256579
24025	-0.00117415	0.0250146
24064	-0.00104063	0.0245992
24103	-0.000983412	0.0248501
24142	-0.00113601	0.0255757
24181	-0.00113601	0.0250771
24220	-0.00109786	0.0249828
24259	-0.000983412	0.0247418
24298	-0.00105971	0.0250563
24337	-0.00092619	0.0239082
24376	-0.00105971	0.02373
24415	-0.00107878	0.0240207
24454	-0.000964338	0.024948
24493	-0.00115508	0.0247273
24532	-0.000983412	0.0241831
24571	-0.00107878	0.0242328
24610	-0.0012123	0.0242058
24649	-0.00100249	0.0244437
24688	-0.00104063	0.0240295
24727	-0.00102156	0.0239725
24766	-0.00105971	0.024118
24805	-0.000983412	0.0251469
24844	-0.00104063	0.0242152
24883	-0.00102156	0.0237101
24922	-0.00109786	0.0237967
24961	-0.00111693	0.0241127
25000	-0.000964338	0.0237522
25039	-0.00105971	0.0234516
25078	-0.00107878	0.0231139
25117	-0.00100249	0.0229855
25156	-0.000983412	0.0235665
25195	-0.000945264	0.0233168
25234	-2.00085	-38.6795
25273	-2.00086	-22.3112
25312	-2.00075	-15.7971
25351	-2.00079	-12.221
25390	-2.00085	-10.0208
25429	-2.00081	-8.57938
25468	-2.00075	-7.5807
25507	-2.00088	-6.82598
25546	-2.00085	-6.20426
25585	-2.00075	-5.73147
25624	-2.00085	-5.35019
25663	-2.00081	-5.04772
25702	-2.00092	-4.77732
25741	-2.00079	-4.55281
25780	-2.00085	-4.35629
25819	-2.00079	-4.20449
25858	-2.0009	-4.04352
25897	-2.00086	-3.91557
25936	-2.00069	-3.79495
25975	-2.00075	-3.70045
26014	-2.00079	-3.59784
26053	-2.00083	-3.49799
26092	-2.00083	-3.41619
26131	-0.000964338	3.00847
26170	-0.00107878	1.53123
26209	-0.00102156	1.12581
26248	-0.000964338	0.945403
26287	-0.00104063	0.839627
26326	-0.00119323	0.780043
26365	-0.00109786	0.719631
26404	-0.00105971	0.674837
26443	-0.000983412	0.642147
26482	-0.00102156	0.612324
26521	-0.00113601	0.583952
26560	-0.00107878	0.556844
26599	-0.00109786	0.538996
26638	-0.00107878	0.523536
26677	-0.00092619	0.513176
26716	-0.00107878	0.492762
26755	-0.00102156	0.478831
26794	-0.00102156	0.468845
26833	-0.00105971	0.464637
26872	-0.00104063	0.449809
26911	-0.00109786	0.439337
26950	-0.00109786	0.432271
26989	-0.00104063	0.428014
27028	-0.00102156	0.420883
27067	-0.00100249	0.411666
27106	-0.00105971	0.405903
27145	-0.00111693	0.400758
27184	-0.00104063	0.398058
27223	-0.000983412	0.389318
27262	-0.00102156	0.384428
27301	-0.00109786	0.379821
27340	-0.000983412	0.379003
27379	-0.000964338	0.370839
27418	-0.000964338	0.365872
27457	-0.00105971	0.361959
27496	-0.000888042	0.360464
27535	-0.000907116	0.355206
27574	-0.00105971	0.349699
27613	-0.00105971	0.346571
27652	-0.00111693	0.343785
27691	-0.00105971	0.342823
27730	-0.00092619	0.336062
27769	-0.00111693	0.332115
27808	-0.00102156	0.328909
27847	-0.000907116	0.329531
27886	-0.00104063	0.322888
27925	-0.00109786	0.319652
27964	-0.00102156	0.317018
28003	-0.00109786	0.315664
28042	-0.00102156	0.312202
28081	-0.00113601	0.308048
28120	-0.00115508	0.305119
28159	-0.000983412	0.303066
28198	-0.00107878	0.302327
28237	-0.00111693	0.297773
28276	-0.00115508	0.29526
28315	-0.00105971	0.293047
28354	-0.00111693	0.293651
28393	-0.000868968	0.288424
28432	-0.000907116	0.284678
28471	-0.00100249	0.282962
28510	-0.000983412	0.28311
28549	-0.000868968	0.279248
28588	-0.000945264	0.275854
28627	-0.00102156	0.27428
28666	-0.00109786	0.272619
28705	-0.00102156	0.271238
28744	-0.000983412	0.267459
28783	-0.000983412	0.265741
28822	1.49919	29.6755
28861	1.49925	14.1825
28900	1.4994	10.2324
28939	1.49918	8.4826
28978	1.49925	7.49203
29017	1.49942	6.8465
29056	1.49939	6.40113
29095	1.49912	6.08516
29134	1.49939	5.84377
29173	1.49914	5.62394
29212	1.49923	5.44418
29251	1.49908	5.31439
29290	1.49937	5.174
29329	1.49933	5.06069
29368	1.49929	4.93529
29407	1.49937	4.86674
29446	1.49916	4.76864
29485	1.4994	4.68377
29524	1.49935	4.59703
29563	1.49927	4.51567
29602	1.49937	4.46218
29641	1.4994	4.38976
29680	1.49918	4.3281
29719	1.49916	4.23616
29758	1.49923	4.19228
29797	1.49939	4.13151
29836	1.49931	4.075
29875	1.49921	3.9906
29914	1.49923	3.94464
29953	1.49931	3.89287
29992	1.49935	3.83571
30031	1.49923	3.77264
30070	1.49919	3.70525
30109	1.49931	3.66847
30148	1.49939	3.61624
30187	1.49929	3.56577
30226	1.49948	3.49714
30265	1.49937	3.46638
30304	1.49937	3.42289
30343	1.49929	3.37644
30382	1.49918	3.30788
30421	1.49931	3.27226
30460	1.49918	3.2309
30499	1.49939	3.18028
30538	1.49925	3.12116
30577	1.49939	3.06695
30616	-0.00107878	-2.24563
30655	-0.000849894	-0.208602
30694	-0.00113601	0.000430735
30733	-0.00102156	0.0370186
30772	-0.00109786	0.042356
30811	-0.00102156	0.0452559
30850	-0.00105971	0.0448174
30889	-0.000983412	0.0466218
30928	-0.00104063	0.0442185
30967	-0.00102156	0.0435851
31006	-0.00105971	0.0436928
31045	-0.00102156	0.0460091
31084	-0.000945264	0.0450345
31123	-0.00117415	0.044458
31162	-0.00109786	0.0445994
31201	-0.00113601	0.0459374
31240	-0.00102156	0.0455421
31279	-0.000983412	0.0447693
31318	-0.000964338	0.0444163
31357	-0.000907116	0.0444687
31396	-0.00107878	0.0456184
31435	-0.000888042	0.0448752
31474	-0.000964338	0.0441936
31513	-0.00113601	0.0439139
31552	-0.00111693	0.0457952
31591	-0.00119323	0.0445163
31630	-0.00109786	0.0441106
31669	-0.00100249	0.0430312
31708	-0.00104063	0.0443283
31747	-0.000983412	0.0445593
31786	-0.000983412	0.043285
31825	-0.00104063	0.0434415
31864	-0.000964338	0.0435021
31903	-0.000945264	0.0432439
31942	-0.00102156	0.0422689
31981	-0.000945264	0.0425793
32020	-0.00105971	0.0429974
32059	-0.00102156	0.0438827
32098	-0.00083082	0.0426663
32137	-0.00107878	0.0419472
32176	-0.00107878	0.0417143
32215	-0.000945264	0.0426325
32254	-0.00105971	0.0418613
32293	-0.000983412	0.0407857
32332	-0.00107878	0.0404981
32371	-0.00111693	0.0409143
32410	-0.00100249	0.0412746
32449	-0.00100249	0.0402148
32488	-0.00107878	0.0399712
32527	-0.00107878	0.0396367
32566	-0.000945264	0.040593
32605	-0.000983412	0.0396363
32644	-0.00102156	0.0392846
32683	-0.00092619	0.0391751
32722	-0.00104063	0.040336
32761	-0.00109786	0.0392432
32800	-0.00105971	0.0385324
32839	-0.00105971	0.0381775
32878	-0.000945264	0.0384006
32917	-0.00092619	0.0385048
32956	-0.00092619	0.0380847
32995	-0.00092619	0.0379428
33034	-0.00117415	0.0372259
33073	-0.00102156	0.0375458
33112	-0.00111693	0.0369456
33151	-0.000964338	0.0367171
33190	-0.000983412	0.0362473
33229	-0.00104063	0.0372723
33268	-0.00102156	0.0367622
33307	-0.00104063	0.0365466
33346	-0.00104063	0.0361775
33385	-0.00113601	0.036393
33424	-0.000964338	0.0367023
33463	-0.00102156	0.0361068
33502	-0.000907116	0.0354842
33541	-0.00104063	0.0349373
33580	-0.00109786	0.0355478
33619	-0.00102156	0.0347284
33658	-0.00100249	0.0352439
33697	-0.00119323	0.0345944
33736	-0.00092619	0.0358001
33775	-0.00107878	0.0352451
33814	-0.00100249	0.0348155
33853	-0.00102156	0.0345186
33892	-0.00102156	0.0338634
33931	-0.000983412	0.0338015
33970	-0.00117415	0.0334876
34009	-0.00102156	0.0331151
34048	-0.00109786	0.0331745
34087	-0.00107878	0.0344015
34126	-0.00100249	0.0338071
34165	-0.00104063	0.0333216
34204	-0.00115508	0.0328812
34243	-0.00111693	0.0335588
34282	-0.000888042	0.0326567
34321	-0.00105971	0.0326298
34360	-0.00113601	0.0326097
34399	-0.00100249	0.0327184
34438	-0.00105971	0.0324809
34477	-0.00105971	0.0316137
34516	-0.00104063	0.0315408
34555	-0.00111693	0.0315747
34594	-0.00102156	0.0320632
34633	-0.000888042	0.0313674
34672	-0.00111693	0.0313817
34711	-0.000849894	0.0314092
34750	-0.000964338	0.0321542
34789	-0.00115508	0.0312305
34828	-0.000964338	0.0303139
34867	-0.000945264	0.0301229
34906	-0.00100249	0.0309898
34945	-0.00109786	0.0304405
34984	-0.00113601	0.029805
35023	-0.000964338	0.0297045
35062	-0.00111693	0.0298786
35101	-0.00111693	0.030437
35140	-0.000983412	0.0297592
35179	-0.00107878	0.0296781
35218	-0.000811746	0.0297986
35257	-0.000945264	0.0305917
35296	-0.00109786	0.0295797
35335	-0.000945264	0.0293424
35374	-0.00102156	0.0293061
35413	-0.00109786	0.0294719
35452	-0.00113601	0.0291638
35491	-0.000983412	0.0287505
35530	-0.00107878	0.0288209
35569	-0.00105971	0.028918
35608	-0.00111693	0.0293758
35647	-0.00105971	0.0286915
35686	-0.00109786	0.0286483
35725	-0.00107878	0.0283518
35764	-0.00100249	0.0289597
35803	-0.000888042	0.028399
35842	-0.00105971	0.0283086
35881	-0.000983412	0.0279429
35920	-0.00105971	0.0284144
35959	-0.00105971	0.0279101
35998	-0.000983412	0.0274773
36037	-0.00115508	0.0274417
36076	-0.00117415	0.0274717
36115	-0.00100249	0.0277443
36154	-0.000983412	0.0271572
36193	-0.00109786	0.027001
36232	-0.00109786	0.0270427
36271	-0.00117415	0.0278146
36310	-0.00100249	0.0270251
36349	-0.00092619	0.0268343
36388	-0.00104063	0.0267158
36427	-0.00100249	0.0272953
36466	-0.00100249	0.0267777
36505	-0.00100249	0.0264222
36544	-0.00104063	0.0263448
36583	-0.00107878	0.026407
36622	-0.00111693	0.0266339
36661	-0.000907116	0.0259056
36700	-0.00105971	0.0260627
36739	-0.00109786	0.0260097
36778	-0.000983412	0.0268536
36817	-0.00109786	0.0262
36856	-0.00109786	0.026057
36895	-0.000983412	0.0257985
36934	-0.00107878	0.026062
36973	-0.00105971	0.0257897
37012	-0.000907116	0.0254427
37051	-0.00115508	0.0253365
37090	-0.000964338	0.0256347
37129	-0.00100249	0.0255971
37168	-0.00115508	0.0250577
37207	-0.000945264	0.024995
37246	-0.000983412	0.0248028
37285	-0.00104063	0.0253168
37324	-0.00105971	0.0245851
37363	-0.00102156	0.0245971
37402	-0.00113601	0.0245173
37441	-0.00102156	0.0250448
37480	-0.000983412	0.0244829
37519	-0.000964338	0.0242947
37558	-0.00100249	0.0242726
37597	-0.00102156	0.0242954
37636	-0.000964338	0.0244867
37675	-0.00102156	0.0239718
37714	-0.00107878	0.0240048
37753	-0.00105971	0.0239645
37792	-0.000945264	0.0245705
37831	-0.00105971	0.0237953
37870	-0.00104063	0.023727
37909	-0.000888042	0.0239065
37948	-0.000888042	0.0243671
37987	-0.000983412	0.0236588
38026	-0.00102156	0.0234549
38065	-0.000907116	0.023455
38104	-0.00100249	0.0235975
38143	-0.000907116	0.0235659
38182	-0.00107878	0.0230891
38221	-0.00107878	0.0230654
38260	-0.00107878	0.0230497
38299	-0.00102156	0.0234678
38338	-0.00100249	0.022835
38377	-0.00102156	0.0228404
38416	-0.00105971	0.0227611
38455	-0.00102156	0.0234694
38494	-0.00102156	0.0226959
38533	-0.00102156	0.0226245
38572	-0.00107878	0.0226445
38611	-0.00105971	0.0228558
38650	-0.00102156	0.0227784
38689	-0.00104063	0.0222547
38728	-0.00115508	0.0222556
38767	-0.00102156	0.0222196
38806	-0.00107878	0.0225481
38845	-0.000983412	0.0220243
38884	-0.00119323	0.0220299
38923	-0.000888042	0.021916
38962	-0.000983412	0.0224842
39001	-0.00107878	0.0219386
39040	-0.00107878	0.0217426
39079	-0.00092619	0.0216645
39118	-0.00113601	0.0219784
39157	-0.00102156	0.0218295
39196	-0.000945264	0.0216136
39235	-0.00092619	0.0216595
39274	-0.000983412	0.0213829
39313	-0.00104063	0.0217392
39352	-0.00100249	0.0211009
39391	-0.00100249	0.0210179
39430	-0.00107878	0.0209495
39469	-0.00109786	0.0216041
39508	-0.00104063	0.0211438
39547	-0.00102156	0.0210241
39586	-0.00111693	0.0210535
39625	-2.00071	-35.5861
39664	-2.00094	-18.5337
39703	-2.00083	-13.0309
39742	-2.00086	-10.2222
39781	-2.00079	-8.51038
39820	-2.00096	-7.4096
39859	-2.00085	-6.58396
39898	-2.00085	-5.9715
39937	-2.00085	-5.49503
39976	-2.00085	-5.1396
40015	-2.00086	-4.80689
40054	-2.00086	-4.53181
40093	-2.00081	-4.30454
40132	-2.00086	-4.11772
40171	-2.00077	-3.95405
40210	-2.00083	-3.79907
40249	-2.00086	-3.67455
40288	-2.0009	-3.56171
40327	-2.00096	-3.47759
40366	-2.00073	-3.37807
40405	-2.00079	-3.29586
40444	-2.00094	-3.22235
40483	-2.00081	-3.1695
40522	-0.00100249	3.93525
40561	-0.000983412	1.49714
40600	-0.00109786	1.00691
40639	-0.00102156	0.814533
40678	-0.000964338	0.704608
40717	-0.00102156	0.628821
40756	-0.00109786	0.578824
40795	-0.00104063	0.539214
40834	-0.00111693	0.509113
40873	-0.000964338	0.473781
40912	-0.000983412	0.449673
40951	-0.000888042	0.428179
40990	-0.00092619	0.414414
41029	-0.000964338	0.395143
41068	-0.00104063	0.378048
41107	-0.000964338	0.363623
41146	-0.00100249	0.352471
41185	-0.000983412	0.340822
41224	-0.00104063	0.327599
41263	-0.000964338	0.319059
41302	-0.00100249	0.31085
41341	-0.00100249	0.306605
41380	-0.00105971	0.297293
41419	-0.00113601	0.291118
41458	-0.00104063	0.285656
41497	-0.000868968	0.283311
41536	-0.00092619	0.276903
41575	-0.00105971	0.271848
41614	-0.00100249	0.268983
41653	-0.000945264	0.266568
41692	-0.000888042	0.264131
41731	-0.00109786	0.258925
41770	-0.000983412	0.255786
41809	-0.00102156	0.253672
41848	-0.000964338	0.25267
41887	-0.000849894	0.247803
41926	-0.00100249	0.245587
41965	-0.00100249	0.242702
42004	-0.00104063	0.242422
42043	-0.000964338	0.238834
42082	-0.000907116	0.235593
42121	-0.00104063	0.233258
42160	-0.00092619	0.232492
42199	-0.00104063	0.230671
42238	-0.00105971	0.227497
42277	-0.00113601	0.225922
42316	-0.00102156	0.22431
42355	-0.000849894	0.22412
42394	-0.00092619	0.220674
42433	-0.000983412	0.218903
42472	-0.000945264	0.216866
42511	-0.00092619	0.216919
42550	-0.00109786	0.214214
42589	-0.00109786	0.211891
42628	-0.00104063	0.210396
42667	-0.00107878	0.209946
42706	-0.00111693	0.208601
42745	-0.00100249	0.205807
42784	-0.00102156	0.20424
42823	-0.000964338	0.203047
42862	-0.00105971	0.202762
42901	-0.00107878	0.199923
42940	-0.00092619	0.198585
42979	-0.000945264	0.197128
43018	-0.00111693	0.197422
43057	-0.000983412	0.195122
43096	-0.00107878	0.193477
43135	-0.00100249	0.192119
43174	-0.00102156	0.191352
43213	1.49944	36.7069
43252	1.49935	13.9984
43291	1.49923	9.497
43330	1.49948	7.61855
43369	1.49916	6.59075
43408	1.49921	6.01355
43447	1.49925	5.57488
43486	1.49931	5.26621
43525	1.49948	4.99391
43564	1.49933	4.77227
43603	1.49931	4.63163
43642	1.49933	4.48857
43681	1.49916	4.34954
43720	1.49921	4.20516
43759	1.49918	4.11697
43798	1.49927	4.01601
43837	1.49929	3.92109
43876	1.49944	3.80222
43915	1.49927	3.72867
43954	1.49944	3.65078
43993	1.49918	3.56714
44032	1.49919	3.46428
44071	1.49927	3.38186
44110	1.49931	3.31291
44149	1.49935	3.23112
44188	1.49923	3.1472
44227	1.49923	3.05764
44266	1.49952	2.99497
44305	1.49921	2.92326
44344	1.49944	2.84858
44383	1.49931	2.75575
44422	1.49918	2.69812
44461	1.49921	2.63446
44500	1.49929	2.56433
44539	1.49933	2.48031
44578	1.49942	2.41396
44617	1.49937	2.3579
44656	1.49927	2.30021
44695	1.49921	2.24084
44734	1.49919	2.17482
44773	1.49942	2.14255
44812	1.49937	2.10559
44851	1.49937	2.06752
44890	1.49933	2.00798
44929	1.49935	1.97789
44968	1.49937	1.95152
45007	-0.00107878	-4.30437
45046	-0.000964338	-0.369873
45085	-0.000945264	-0.115005
45124	-0.00100249	-0.0538259
45163	-0.00115508	-0.0291331
45202	-0.00105971	-0.014812
45241	-0.000945264	-0.00665657
45280	-0.00100249	-0.00136573
45319	-0.000983412	0.00310469
45358	-0.00102156	0.00734165
45397	-0.000964338	0.0107592
45436	-0.00105971	0.0129343
45475	-0.00092619	0.0148419
45514	-0.00107878	0.0168504
45553	-0.00109786	0.0188223
45592	-0.00109786	0.0194689
45631	-0.00105971	0.0208705
45670	-0.00117415	0.0217277
45709	-0.000983412	0.0237213
45748	-0.00109786	0.0234922
45787	-0.00111693	0.0243222
45826	-0.00111693	0.024775
45865	-0.00109786	0.0257809
45904	-0.00109786	0.026772
45943	-0.00104063	0.0273084
45982	-0.00109786	0.027161
46021	-0.00111693	0.0274539
46060	-0.00102156	0.0280724
46099	-0.00102156	0.0274584
46138	-0.00100249	0.0276347
46177	-0.000983412	0.0281133
46216	-0.00092619	0.0291302
46255	-0.000964338	0.0281359
46294	-0.000907116	0.028554
46333	-0.00102156	0.0284156
46372	-0.00109786	0.0290793
46411	-0.000945264	0.0287619
46450	-0.000868968	0.0285688
46489	-0.00111693	0.0294066
46528	-0.00115508	0.0295719
46567	-0.00105971	0.0296999
46606	-0.00104063	0.0291001
46645	-0.00111693	0.0291016
46684	-0.00105971	0.0287939
46723	-0.00102156	0.0297673
46762	-0.00109786	0.0290846
46801	-0.00105971	0.0286214
46840	-0.00109786	0.0283263
46879	-0.00105971	0.02919
46918	-0.00102156	0.0291527
46957	-0.00105971	0.0287858
46996	-0.00109786	0.0284904
47035	-0.00092619	0.029048
47074	-0.000983412	0.0293109
47113	-0.000945264	0.0284562
47152	-0.00119323	0.0287415
47191	-0.000945264	0.0286022
47230	-0.00104063	0.0290545
47269	-0.000964338	0.0284102
47308	-0.00105971	0.0280135
47347	-0.00113601	0.027837
47386	-0.00111693	0.0285677
47425	-0.00100249	0.0285545
47464	-0.00105971	0.0278369
47503	-0.00111693	0.0276704
47542	-0.000888042	0.0281043
47581	-0.00104063	0.0281956
47620	-0.00111693	0.0277189
47659	-0.000983412	0.0276969
47698	-0.00100249	0.0273526
47737	-0.00119323	0.0277676
47776	-0.000868968	0.0272541
47815	-0.00111693	0.0271857
47854	-0.00104063	0.0269959
47893	-0.00104063	0.0276623
47932	-0.000983412	0.0272273
47971	-0.00107878	0.0267299
48010	-0.00105971	0.0269129
48049	-0.00102156	0.0271513
48088	-0.00105971	0.0271217
48127	-0.00104063	0.0264907
48166	-0.00107878	0.026583
48205	-0.00105971	0.0262756
48244	-0.00102156	0.0267088
48283	-0.000983412	0.0255634
48322	-0.000983412	0.0259019
48361	-0.00107878	0.0258154
48400	-0.00109786	0.0264206
48439	-0.00109786	0.0259771
48478	-0.00105971	0.0256947
48517	-0.00115508	0.0258649
48556	-0.000964338	0.0261363
48595	-0.00107878	0.0262832
48634	-0.000868968	0.0252529
48673	-0.000907116	0.0251904
48712	-0.00100249	0.0253423
48751	-0.000945264	0.0259004
48790	-0.00117415	0.0252103
48829	-0.000945264	0.0251384
48868	-0.00109786	0.0250693
48907	-0.00111693	0.0256547
48946	-0.00109786	0.0247847
48985	-0.00102156	0.0246711
49024	-0.00119323	0.0247149
49063	-0.00111693	0.0248033
49102	-0.00100249	0.0248479
49141	-0.00100249	0.0244653
49180	-0.00107878	0.0243115
49219	-0.00115508	0.024305
49258	-0.00105971	0.0247936
49297	-0.00105971	0.023999
49336	-0.00115508	0.0237818
49375	-0.00100249	0.0238652
49414	-0.000983412	0.0245917
49453	-0.00105971	0.0239943
49492	-0.000983412	0.0238051
49531	-0.00102156	0.0238792
49570	-0.00104063	0.0242423
49609	-0.0012123	0.0239526
49648	-0.00105971	0.0233388
49687	-0.00105971	0.0235376
49726	-0.00102156	0.0234021
49765	-0.00107878	0.0237181
49804	-0.00113601	0.0230349
49843	-0.00111693	0.023244
49882	-0.00104063	0.0231034
49921	-0.00109786	0.0235441
49960	-0.00104063	0.0229722
49999	-0.00102156	0.0228476
50038	-0.00105971	0.0228144
50077	-0.00105971	0.0231117
50116	-0.000792671	0.022702
50155	-0.000945264	0.0224659
50194	-0.00105971	0.0223814
50233	-0.000907116	0.0224239
50272	-0.000964338	0.0227672
50311	-0.00105971	0.022255
50350	-0.000983412	0.0225236
50389	-0.00102156	0.0223101
50428	-0.000964338	0.0224964
50467	-0.00119323	0.0219081
50506	-0.00102156	0.0217989
50545	-0.00102156	0.0219005
50584	-0.00123138	0.0222886
50623	-0.00123138	0.021959
50662	-0.00104063	0.0217426
50701	-0.00111693	0.0217321
50740	-0.000983412	0.0215406
50779	-0.00109786	0.0218468
50818	-0.000964338	0.0212572
50857	-0.000983412	0.0213604
50896	-0.00092619	0.0214218
50935	-0.000945264	0.0218623
50974	-0.00092619	0.0213468
51013	-0.00115508	0.0211735
51052	-0.00111693	0.0210537
51091	-0.000945264	0.0213764
51130	-0.00105971	0.0210688
51169	-0.000983412	0.0207562
51208	-0.000945264	0.0207356
51247	-0.00100249	0.020901
51286	-0.00107878	0.0210156
51325	-0.00105971	0.0206596
51364	-0.00111693	0.0208387
51403	-0.00117415	0.0207457
51442	-0.00104063	0.0211195
51481	-0.00102156	0.0205336
51520	-0.00109786	0.0203982
51559	-0.00104063	0.0203448
51598	-0.000849894	0.0205804
51637	-0.00105971	0.0202787
51676	-0.00105971	0.0200405
51715	-0.00109786	0.0201742
51754	-0.00109786	0.0201104
51793	-0.000907116	0.0202624
51832	-0.00111693	0.0198276
51871	-0.000964338	0.0198743
51910	-0.00105971	0.0198404
51949	-0.00109786	0.0203162
51988	-0.00109786	0.0197694
52027	-0.00104063	0.0197077
52066	-0.00105971	0.0196975
52105	-0.000983412	0.0200714
52144	-0.00102156	0.0196044
52183	-0.000907116	0.0194227
52222	-0.00113601	0.0195346
52261	-0.00102156	0.0194599
52300	-0.00102156	0.0195714
52339	-0.000945264	0.0192538
52378	-0.00102156	0.0192246
52417	-0.00107878	0.0191698
52456	-0.00092619	0.0194714
52495	-0.00107878	0.0189735
52534	-0.00113601	0.0190189
52573	-0.000983412	0.0190048
52612	-0.00111693	0.0192797
52651	-0.00104063	0.018913
52690	-0.00109786	0.0187542
52729	-0.00100249	0.0187748
52768	-0.000907116	0.0188597
52807	-0.00102156	0.0187485
52846	-0.00104063	0.0184275
52885	-0.00115508	0.0185653
52924	-0.00105971	0.0186013
52963	-0.000907116	0.0188963
53002	-0.000983412	0.0184447
53041	-0.000983412	0.0183536
53080	-0.000907116	0.0184532
53119	-0.00113601	0.0188992
53158	-0.00105971	0.0184238
53197	-0.00107878	0.0181719
53236	-0.00100249	0.0182334
53275	-0.00102156	0.0181841
53314	-0.000983412	0.0182115
53353	-0.00107878	0.0180059
53392	-0.00111693	0.0180502
53431	-0.00107878	0.0180413
53470	-0.00100249	0.0182831
53509	-0.00100249	0.0178868
53548	-0.00102156	0.0178753
53587	-0.00105971	0.0177763
53626	-0.00104063	0.0181851
53665	-0.00104063	0.0177666
53704	-0.00104063	0.0176445
53743	-0.00111693	0.0176492
53782	-0.00100249	0.0178025
53821	-0.00102156	0.0177661
53860	-0.00113601	0.017483
53899	-0.00105971	0.0175011
53938	-0.000983412	0.0174772
53977	-0.00107878	0.0178032
54016	-2.00098	-39.0121
54055	-2.0009	-16.6622
54094	-2.00088	-11.3317
54133	-2.00079	-8.89414
54172	-2.00088	-7.46081
54211	-2.00086	-6.52606
54250	-2.00092	-5.86847
54289	-2.00088	-5.3771
54328	-2.00092	-4.99449
54367	-2.00081	-4.68196
54406	-2.00079	-4.42131
54445	-2.00088	-4.20076
54484	-2.00071	-4.02874
54523	-2.00096	-3.8562
54562	-2.00081	-3.71851
54601	-2.00085	-3.59452
54640	-2.00071	-3.50224
54679	-2.00094	-3.40132
54718	-2.00081	-3.31067
54757	-2.00086	-3.23418
54796	-2.00073	-3.17082
54835	-2.00081	-3.11253
54874	-2.00086	-3.04767
54913	-0.000945264	6.82693
54952	-0.00109786	1.66197
54991	-0.000964338	1.00916
55030	-0.000964338	0.75855
55069	-0.00104063	0.634026
55108	-0.00104063	0.558783
55147	-0.00105971	0.510341
55186	-0.000983412	0.467407
55225	-0.00092619	0.433615
55264	-0.00104063	0.40832
55303	-0.00109786	0.387706
55342	-0.00092619	0.369157
55381	-0.000945264	0.348912
55420	-0.00113601	0.333919
55459	-0.00109786	0.319485
55498	-0.000964338	0.308965
55537	-0.00109786	0.294825
55576	-0.000964338	0.283824
55615	-0.00107878	0.273815
55654	-0.00102156	0.266068
55693	-0.00104063	0.256458
55732	-0.00113601	0.247382
55771	-0.00107878	0.24005
55810	-0.00107878	0.234319
55849	-0.000983412	0.228651
55888	-0.00102156	0.221351
55927	-0.00107878	0.216261
55966	-0.00111693	0.211496
56005	-0.00109786	0.208874
56044	-0.00107878	0.203789
56083	-0.00104063	0.20009
56122	-0.00107878	0.196822
56161	-0.000964338	0.19527
56200	-0.00100249	0.19205
56239	-0.000964338	0.188955
56278	-0.00107878	0.186862
56317	-0.00113601	0.184623
56356	-0.00104063	0.183376
56395	-0.000983412	0.180445
56434	-0.000907116	0.178475
56473	-0.00105971	0.176676
56512	-0.00100249	0.176372
56551	-0.00109786	0.173541
56590	-0.00100249	0.171934
56629	-0.00105971	0.170604
56668	-0.00111693	0.170449
56707	-0.00104063	0.168261
56746	-0.00100249	0.166465
56785	-0.00100249	0.165234
56824	-0.00104063	0.164383
56863	-0.000964338	0.163363
56902	-0.00102156	0.160999
56941	-0.00092619	0.159853
56980	-0.00104063	0.158589
57019	-0.00107878	0.158371
57058	-0.00104063	0.156149
57097	-0.00104063	0.154585
57136	-0.000945264	0.153448
57175	-0.00113601	0.152943
57214	-0.00109786	0.151227
57253	-0.00107878	0.149609
57292	-0.000888042	0.148491
57331	-0.00102156	0.147858
57370	-0.000945264	0.146906
57409	-0.00105971	0.144799
57448	-0.00107878	0.143762
57487	-0.00111693	0.142568
57526	-0.00100249	0.142183
57565	-0.00100249	0.139862
57600	-0.00102156	0.139402