File: Data_02_Experiment/CA_001_C01.txt
time/s	Ewe/V	<I>/mA
1	1.49965	0.367092
40	1.49925	11.9604
79	1.49946	7.40702
118	1.49914	6.35354
157	1.49931	5.85653
196	1.49946	5.46975
235	1.49927	5.24919
274	1.49931	5.00869
313	1.49929	4.84773
352	1.49935	4.69631
391	1.49927	4.57626
430	1.49931	4.39839
469	1.49912	4.33256
508	1.49944	4.28253
547	1.49919	4.18474
586	1.49923	4.00677
625	1.49933	3.9818
664	1.49925	3.9331
703	1.49942	3.87694
742	1.49925	3.69804
781	1.49921	3.68875
820	1.49939	3.66175
859	1.49929	3.61258
898	1.49923	3.5138
937	1.49935	3.42162
976	1.49929	3.44243
1015	1.49933	3.41231
1054	1.49925	3.34912
1093	1.49927	3.21036
1132	1.49927	3.2157
1171	1.49912	3.23344
1210	1.49935	3.19525
1249	1.49923	3.08639
1288	1.49952	3.09517
1327	1.49925	3.13329
1366	1.49925	3.11561
1405	1.49912	3.0433
1444	1.49931	2.96174
1483	1.49929	3.01933
1522	1.49937	3.01984
1561	1.4995	2.99439
1600	1.49948	2.85518
1639	1.4994	2.91938
1678	1.4994	2.96374
1717	1.49929	2.95382
1756	1.49935	2.82249
1795	1.49948	2.83904
1833.95	-0.00109786	-0.861302
1872.95	-0.000945264	-0.122348
1911.95	-0.00109786	-0.0122366
1950.98	-0.00115508	0.0211754
1989.98	-0.00123138	0.0386976
2028.98	-0.000983412	0.0490739
2067.98	-0.000945264	0.0584476
2106.98	-0.00102156	0.0629489
2145.98	-0.00102156	0.0652599
2184.98	-0.00105971	0.069573
2223.98	-0.00100249	0.0726434
2262.98	-0.00117415	0.0759222
2301.98	-0.00105971	0.074578
2340.98	-0.00111693	0.0759316
2379.98	-0.00125045	0.0768889
2418.98	-0.00111693	0.0794957
2457.98	-0.00104063	0.0781826
2496.98	-0.00113601	0.0793305
2535.98	-0.00109786	0.0809797
2574.98	-0.000964338	0.082625
2613.98	-0.00113601	0.0841398
2652.98	-0.000945264	0.0830458
2691.98	-0.000868968	0.0845164
2730.98	-0.00100249	0.0844245
2769.98	-0.00111693	0.0851694
2808.98	-0.00111693	0.0821663
2847.98	-0.00100249	0.0860436
2886.98	-0.00100249	0.0861791
2925.98	-0.000983412	0.0867053
2964.98	-0.00100249	0.0844902
3003.98	-0.000983412	0.0842424
3042.98	-0.000907116	0.0840402
3081.98	-0.00115508	0.0852892
3120.98	-0.00105971	0.0841076
3159.98	-0.00105971	0.0809535
3198.98	-0.00117415	0.0802299
3237.98	-0.00102156	0.0799052
3276.98	-0.00107878	0.0809182
3315.98	-0.00125045	0.0790011
3354.98	-0.00104063	0.0790162
3393.98	-0.00117415	0.0796826
3432.98	-0.00104063	0.0800296
3471.98	-0.00117415	0.0775863
3510.98	-0.00111693	0.0769732
3549.98	-0.000983412	0.0769511
3588.98	-0.000964338	0.0774612
3627.98	-0.00105971	0.0769441
3666.98	-0.00102156	0.0751189
3705.98	-0.00111693	0.0745156
3744.98	-0.00104063	0.0739764
3783.98	-0.00119323	0.0747668
3822.98	-0.00105971	0.072628
3861.98	-0.000945264	0.0726862
3900.98	-0.00092619	0.0721514
3939.98	-0.00104063	0.0727495
3978.98	-0.000983412	0.0709747
4017.98	-0.000983412	0.0704124
4056.98	-0.000983412	0.0702052
4095.98	-0.00100249	0.0705983
4134.98	-0.00115508	0.0703754
4173.98	-0.00105971	0.0686771
4212.98	-0.000983412	0.0687994
4251.98	-0.00102156	0.0683469
4290.98	-0.000983412	0.0687764
4329.98	-0.000983412	0.0670517
4368.98	-0.00113601	0.0668854
4407.98	-0.00105971	0.0666082
4446.98	-0.00117415	0.0672259
4485.98	-0.00115508	0.0658399
4524.98	-0.00113601	0.0653907
4563.98	-0.00123138	0.0649528
4602.98	-0.00107878	0.0652696
4641.98	-0.00100249	0.064465
4680.98	-0.00100249	0.0634726
4719.98	-0.00117415	0.0634312
4758.98	-0.000907116	0.06313
4797.98	-0.00107878	0.0633974
4836.98	-0.00102156	0.0624336
4875.98	-0.000945264	0.0622065
4914.98	-0.00111693	0.0617634
4953.98	-0.00113601	0.0623103
4992.98	-0.00102156	0.0610021
5031.98	-0.00111693	0.0605796
5070.98	-0.00083082	0.0606031
5109.98	-0.000907116	0.0606988
5148.98	-0.000945264	0.0601211
5187.98	-0.00105971	0.0592172
5226.98	-0.00105971	0.0592027
5265.98	-0.00115508	0.0590642
5304.98	-0.00109786	0.0592235
5343.98	-0.00111693	0.0581117
5382.98	-0.000964338	0.0579421
5421.98	-0.00105971	0.0574712
5460.98	-0.00105971	0.0580004
5499.98	-0.00104063	0.0569241
5538.98	-0.00111693	0.0564842
5577.98	-0.00100249	0.0562603
5616.98	-0.0012123	0.0566143
5655.98	-0.00111693	0.0561634
5694.98	-0.00092619	0.0553773
5733.98	-0.00109786	0.0553334
5772.98	-0.00092619	0.05525
5811.98	-0.00111693	0.05532
5850.98	-0.00105971	0.0544383
5889.98	-0.000945264	0.0542845
5928.98	-0.000983412	0.0540197
5967.98	-0.00102156	0.0544925
6006.98	-0.00115508	0.0533874
6045.98	-0.00111693	0.0532139
6084.98	-0.00111693	0.0528652
6123.98	-0.00111693	0.0532841
6162.98	-0.00102156	0.0527146
6201.98	-0.00102156	0.0522195
6240.98	-0.000983412	0.0520173
6279.98	-0.00117415	0.0519556
6318.98	-0.0012123	0.052207
6357.98	-0.00111693	0.0512417
6396.98	-0.000907116	0.0509581
6435.98	-0.000983412	0.050776
6474.98	-0.00115508	0.0511424
6513.98	-0.000868968	0.050212
6552.98	-0.000983412	0.0499639
6591.98	-0.00104063	0.0498379
6630.98	-0.00102156	0.0502595
6669.98	-0.00123138	0.0498573
6708.98	-0.000983412	0.0491583
6747.98	-0.00104063	0.0488792
6786.98	-0.000945264	0.0487254
6825.98	-0.00100249	0.0489276
6864.98	-0.00115508	0.0484402
6903.98	-0.00119323	0.0483833
6942.98	-0.00109786	0.0481568
6981.98	-0.00104063	0.0484948
7020.98	-0.00115508	0.0477238
7059.98	-0.00100249	0.0473947
7098.98	-0.00111693	0.0472909
7137.98	-0.000964338	0.0475167
7176.98	-0.00107878	0.0470813
7215.98	-0.00113601	0.0468481
7254.98	-0.0012123	0.0466077
7293.98	-0.00113601	0.0465538
7332.98	-0.00115508	0.046663
7371.98	-0.00102156	0.0460046
7410.98	-0.00104063	0.0459953
7449.98	-0.000983412	0.0458221
7488.98	-0.00100249	0.0460674
7527.98	-0.00117415	0.0451781
7566.98	-0.000983412	0.0450628
7605.98	-0.00111693	0.0450299
7644.98	-0.00102156	0.0451676
7683.98	-0.00104063	0.0445745
7722.98	-0.000983412	0.0443312
7761.98	-0.00104063	0.0442327
7800.98	-0.00107878	0.0442022
7839.98	-0.00107878	0.0441133
7878.98	-0.00107878	0.04373
7917.98	-0.000945264	0.0436387
7956.98	-0.00115508	0.043498
7995.98	-0.00119323	0.0438706
8034.98	-0.00115508	0.0431562
8073.98	-0.000983412	0.0429986
8112.98	-0.00119323	0.0428659
8151.98	-0.00102156	0.0431267
8190.98	-0.00117415	0.0426932
8229.98	-0.00104063	0.0424498
8268.98	-0.00105971	0.0423481
8307.98	-0.00100249	0.0423553
8346.98	-0.00119323	0.0423165
8385.98	-0.000983412	0.0418383
8424.98	-0.00100249	0.0416504
8463.98	-0.00117415	0.0417329
8502.98	-0.000983412	0.0420589
8541.98	-0.00111693	0.0413591
8580.98	-0.00109786	0.0410581
8619.98	-0.00100249	0.0412174
8658.98	-0.00107878	0.0413376
8697.98	-0.00102156	0.0408808
8736.98	-0.00104063	0.040775
8775.98	-0.00113601	0.0406927
8814.98	-0.00109786	0.0408037
8853.98	-0.00117415	0.040747
8892.98	-0.00102156	0.0402209
8931.98	-0.00111693	0.0401493
8970.98	-0.00107878	0.0401201
9009.98	-0.00123138	0.0404579
9048.98	-0.0012123	0.0397417
9087.98	-0.000983412	0.0396001
9126.98	-0.000964338	0.0394289
9165.98	-0.0012123	0.0397169
9204.98	-0.00109786	0.0391618
9243.98	-0.00115508	0.0390229
9282.98	-0.00107878	0.0390794
9321.98	-0.000964338	0.0391327
9360.98	-0.00111693	0.0390639
9399.98	-0.000945264	0.0385572
9438.98	-0.00113601	0.0385538
9477.98	-0.000983412	0.0384631
9516.98	-0.00115508	0.0389024
9555.98	-0.00117415	0.0381688
9594.98	-0.00109786	0.038107
9633.98	-0.00102156	0.0380021
9672.98	-0.00105971	0.0383165
9711.98	-0.00123138	0.0379224
9750.98	-0.00113601	0.0376758
9789.98	-0.00107878	0.0376959
9828.98	-0.00107878	0.0378675
9867.98	-0.00105971	0.0377092
9906.98	-0.00105971	0.0373369
9945.98	-0.00111693	0.0373842
9984.98	-0.00113601	0.0372944
10024	-0.00100249	0.0374385
10063	-0.00107878	0.0369842
10102	-0.00104063	0.0368932
10141	-0.00105971	0.0369771
10180	-0.00107878	0.0370821
10219	-0.00100249	0.0365761
10258	-0.00115508	0.036503
10297	-0.00111693	0.0364989
10336	-0.00107878	0.0365714
10375	-0.000945264	0.0364573
10414	-0.00111693	0.0362033
10453	-0.00111693	0.0362331
10492	-0.00100249	0.0362075
10531	-0.00109786	0.0363866
10570	-0.00109786	0.0359671
10609	-0.0012123	0.0357519
10648	-0.000907116	0.0358411
10687	-0.00125045	0.0361238
10726	-0.00104063	0.0357173
10765	-0.000888042	0.0355168
10804	-2.0009	-149.445
10843	-2.00102	-23.1685
10882	-2.00096	-15.6691
10921	-2.00092	-12.6491
10960	-2.00094	-10.935
10999	-2.00094	-9.81851
11038	-2.00088	-9.0419
11077	-2.00102	-8.40274
11116	-2.00086	-7.93734
11155	-2.00092	-7.59574
11194	-2.00102	-7.37505
11233	-2.0009	-7.15209
11272	-2.001	-7.0021
11311	-2.00088	-6.94307
11350	-2.00092	-6.94223
11389	-2.00086	-6.91422
11428	-2.00098	-6.88083
11467	-2.00102	-6.88637
11506	-2.001	-6.92331
11545	-2.00085	-6.99402
11584	-2.001	-7.01707
11623	-2.00098	-7.06795
11662	-2.00094	-7.11584
11701	-0.000849894	142.101
11740	-0.00104063	4.09601
11779	-0.00109786	2.14715
11818	-0.00107878	1.54476
11857	-0.00105971	1.25195
11896	-0.00102156	1.05886
11935	-0.00123138	0.915231
11974	-0.00111693	0.810455
12013	-0.00105971	0.72845
12052	-0.00111693	0.662324
12091	-0.00104063	0.601857
12130	-0.00113601	0.553621
12169	-0.00113601	0.512816
12208	-0.00113601	0.478592
12247	-0.00104063	0.444135
12286	-0.00117415	0.414627
12325	-0.00104063	0.389066
12364	-0.00104063	0.367694
12403	-0.00111693	0.347407
12442	-0.00107878	0.328064
12481	-0.00113601	0.311976
12520	-0.00100249	0.297568
12559	-0.000888042	0.285279
12598	-0.00104063	0.271717
12637	-0.00104063	0.260123
12676	-0.00100249	0.249374
12715	-0.00107878	0.240711
12754	-0.00117415	0.230866
12793	-0.00109786	0.221767
12832	-0.00105971	0.214048
12871	-0.00119323	0.207434
12910	-0.00109786	0.200332
12949	-0.00113601	0.193192
12988	-0.000888042	0.187027
13027	-0.000907116	0.181325
13066	-0.00123138	0.176358
13105	-0.00119323	0.170693
13144	-0.000849894	0.165744
13183	-0.00119323	0.161295
13222	-0.00104063	0.157735
13261	-0.00111693	0.153284
13300	-0.00109786	0.149166
13339	-0.00109786	0.145423
13378	-0.00105971	0.14249
13417	-0.000983412	0.139092
13456	-0.00113601	0.135429
13495	-0.00102156	0.132504
13534	-0.00100249	0.129863
13573	-0.00111693	0.127464
13612	-0.00107878	0.124279
13651	-0.00113601	0.121765
13690	-0.000945264	0.119348
13729	-0.00117415	0.117557
13768	-0.00104063	0.114924
13807	-0.00105971	0.112591
13846	-0.00119323	0.110468
13885	-0.00109786	0.109088
13924	-0.000983412	0.108117
13963	-0.00100249	0.105227
14002	-0.00104063	0.103193
14041	-0.00117415	0.101414
14080	-0.00092619	0.100012
14119	-0.000964338	0.0976898
14158	-0.00107878	0.095998
14197	-0.000983412	0.0942182
14236	-0.00117415	0.0931333
14275	-0.000888042	0.0912576
14314	-0.00113601	0.089511
14353	-0.00102156	0.0880713
14392	-0.000964338	0.0871826
14431	1.49921	27.1844
14470	1.49919	14.264
14509	1.49918	9.8402
14548	1.49944	7.77129
14587	1.49942	6.55645
14626	1.49931	5.74098
14665	1.49919	5.14869
14704	1.49921	4.70487
14743	1.49946	4.33681
14782	1.49916	4.13715
14821	1.49914	3.99608
14860	1.49942	3.85781
14899	1.49918	3.69165
14938	1.49916	3.56093
14977	1.49939	3.54038
15016	1.49918	3.48713
15055	1.49925	3.44645
15094	1.49927	3.32494
15133	1.49931	3.3348
15172	1.49929	3.35512
15211	1.49935	3.36129
15250	1.49933	3.24623
15289	1.49919	3.25747
15328	1.49919	3.31408
15367	1.49923	3.34662
15406	1.49929	3.2471
15445	1.49912	3.19825
15484	1.49916	3.29524
15523	1.49916	3.2974
15562	1.49939	3.2716
15601	1.49944	3.08164
15640	1.49925	3.21114
15679	1.49908	3.26248
15718	1.49927	3.28795
15757	1.49927	3.11687
15796	1.4994	3.11104
15835	1.49927	3.2494
15874	1.49931	3.26248
15913	1.49923	3.19961
15952	1.4994	3.07772
15991	1.49935	3.15336
16030	1.49935	3.20974
16069	1.49929	3.2153
16108	1.49956	3.0326
16147	1.49919	3.07408
16186	1.49929	3.17617
16225	-0.00111693	-2.21438
16264	-0.00107878	-0.730503
16303	-0.00102156	-0.388715
16342	-0.000983412	-0.245882
16381	-0.00109786	-0.169172
16420	-0.00105971	-0.122361
16459	-0.00109786	-0.0913263
16498	-0.00113601	-0.0685482
16537	-0.00111693	-0.0518148
16576	-0.00102156	-0.0385576
16615	-0.00113601	-0.0290323
16654	-0.000983412	-0.0215706
16693	-0.00102156	-0.0149082
16732	-0.00117415	-0.00948518
16771	-0.00102156	-0.00438238
16810	-0.00126952	-0.00176696
16849	-0.00102156	0.00140512
16888	-0.00104063	0.0040133
16927	-0.00113601	0.00740735
16966	-0.00102156	0.00761534
17005	-0.000964338	0.00954421
17044	-0.00104063	0.0114173
17083	-0.00107878	0.0144641
17122	-0.00105971	0.0145185
17161	-0.00102156	0.0144881
17200	-0.00119323	0.0151873
17239	-0.00123138	0.0170754
17278	-0.000945264	0.0183608
17317	-0.00104063	0.0182093
17356	-0.00104063	0.0189386
17395	-0.0012886	0.0195112
17434	-0.00115508	0.0204528
17473	-0.00117415	0.0192061
17512	-0.00105971	0.0192961
17551	-0.00109786	0.0198206
17590	-0.00123138	0.0208211
17629	-0.00105971	0.0202091
17668	-0.00111693	0.0203303
17707	-0.00109786	0.0206447
17746	-0.00104063	0.0211232
17785	-0.00113601	0.0217589
17824	-0.00105971	0.0206227
17863	-0.00092619	0.0210188
17902	-0.00102156	0.0210482
17941	-0.00111693	0.0219671
17980	-0.00105971	0.0207793
18019	-0.000983412	0.0211581
18058	-0.00105971	0.020809
18097	-0.00113601	0.0216534
18136	-0.000964338	0.0215229
18175	-0.00109786	0.0205388
18214	-0.00105971	0.0206388
18253	-0.00105971	0.0215102
18292	-0.000907116	0.0217513
18331	-0.00104063	0.020904
18370	-0.00100249	0.0210292
18409	-0.00104063	0.0213946
18448	-0.00104063	0.0221497
18487	-0.00092619	0.0208191
18526	-0.000983412	0.020616
18565	-0.000964338	0.0204175
18604	-0.000964338	0.0215545
18643	-0.00100249	0.0210242
18682	-0.00111693	0.0202428
18721	-0.000983412	0.02048
18760	-0.000849894	0.0212215
18799	-0.00111693	0.0211782
18838	-0.00109786	0.0201887
18877	-0.00100249	0.0199686
18916	-0.00105971	0.0201002
18955	-0.00100249	0.0208588
18994	-0.000849894	0.0202355
19033	-0.000945264	0.0207875
19072	-0.00115508	0.0203091
19111	-0.00100249	0.0206816
19150	-0.00104063	0.0200103
19189	-0.00107878	0.0197273
19228	-0.00119323	0.0203323
19267	-0.000945264	0.0205108
19306	-0.000907116	0.0201738
19345	-0.00105971	0.0194551
19384	-0.00100249	0.0197367
19423	-0.00109786	0.019562
19462	-0.00102156	0.0199014
19501	-0.00109786	0.0191306
19540	-0.00100249	0.0191524
19579	-0.00115508	0.0191308
19618	-0.00102156	0.0198812
19657	-0.000983412	0.0191651
19696	-0.00107878	0.0190313
19735	-0.00115508	0.0191563
19774	-0.00107878	0.0192236
19813	-0.00107878	0.0193504
19852	-0.00107878	0.0188572
19891	-0.00115508	0.0188645
19930	-0.00125045	0.0190406
19969	-0.00115508	0.0195699
20008	-0.00107878	0.0186253
20047	-0.000907116	0.0181803
20086	-0.00113601	0.0181645
20125	-0.00105971	0.018771
20164	-0.00102156	0.0181917
20203	-0.00102156	0.0182438
20242	-0.000849894	0.0181151
20281	-0.00113601	0.0182105
20320	-0.00102156	0.0183715
20359	-0.00105971	0.0177256
20398	-0.00109786	0.017599
20437	-0.000868968	0.017811
20476	-0.000945264	0.0185025
20515	-0.00111693	0.017805
20554	-0.00102156	0.0176655
20593	-0.00109786	0.0174259
20632	-0.00104063	0.0178409
20671	-0.00119323	0.0175601
20710	-0.00100249	0.0175984
20749	-0.00105971	0.0175124
20788	-0.00102156	0.0177488
20827	-0.00102156	0.0174232
20866	-0.00119323	0.0169296
20905	-0.00111693	0.0174444
20944	-0.00113601	0.0173948
20983	-0.00105971	0.0173017
21022	-0.00105971	0.0168753
21061	-0.00104063	0.0168561
21100	-0.000983412	0.0164253
21139	-0.00092619	0.0173128
21178	-0.00109786	0.0169087
21217	-0.000983412	0.0165183
21256	-0.00113601	0.0164091
21295	-0.000964338	0.016578
21334	-0.000964338	0.016623
21373	-0.00109786	0.0164933
21412	-0.00109786	0.0165764
21451	-0.000983412	0.0167001
21490	-0.00102156	0.0168638
21529	-0.00111693	0.0162402
21568	-0.00109786	0.0159209
21607	-0.00105971	0.016146
21646	-0.00107878	0.0167322
21685	-0.00100249	0.0159309
21724	-0.00113601	0.0157276
21763	-0.00115508	0.0158675
21802	-0.00109786	0.0159332
21841	-0.00104063	0.0160153
21880	-0.00092619	0.0159177
21919	-0.00113601	0.0159103
21958	-0.00111693	0.0160485
21997	-0.00119323	0.0160511
22036	-0.00100249	0.0155598
22075	-0.00109786	0.0157971
22114	-0.00102156	0.0158693
22153	-0.00113601	0.0159572
22192	-0.00113601	0.0152185
22231	-0.00113601	0.0148362
22270	-0.00115508	0.0148636
22309	-0.00100249	0.0155206
22348	-0.00105971	0.0151991
22387	-0.00104063	0.0148697
22426	-0.000964338	0.0150731
22465	-0.00100249	0.0152391
22504	-0.00113601	0.0156451
22543	-0.000983412	0.0153466
22582	-0.00111693	0.0151069
22621	-0.00109786	0.0148152
22660	-0.000964338	0.0151206
22699	-0.00115508	0.0150006
22738	-0.00100249	0.0147076
22777	-0.00104063	0.0148973
22816	-0.00113601	0.0150647
22855	-0.00105971	0.0147714
22894	-0.00113601	0.0146645
22933	-0.00100249	0.0146602
22972	-0.0012123	0.0147199
23011	-0.00113601	0.0150316
23050	-0.00113601	0.0146199
23089	-0.000945264	0.0148014
23128	-0.00092619	0.0145498
23167	-0.00104063	0.0148125
23206	-0.00111693	0.0146333
23245	-0.00092619	0.0143413
23284	-0.0012123	0.0142537
23323	-0.00105971	0.0145635
23362	-0.00111693	0.0145164
23401	-0.00102156	0.0141929
23440	-0.000964338	0.0141593
23479	-0.00107878	0.0141459
23518	-0.000945264	0.0143614
23557	-0.00104063	0.0138225
23596	-0.00104063	0.0140282
23635	-0.00105971	0.0139935
23674	-0.000983412	0.0143999
23713	-0.00102156	0.0140298
23752	-0.00119323	0.013825
23791	-0.00092619	0.013864
23830	-0.00107878	0.0141621
23869	-0.00111693	0.0139615
23908	-0.000983412	0.0135571
23947	-0.00104063	0.0137503
23986	-0.00102156	0.0139236
24025	-0.00119323	0.0139266
24064	-0.00113601	0.0137519
24103	-0.00100249	0.0136908
24142	-0.00100249	0.0133161
24181	-0.00102156	0.0137039
24220	-0.00104063	0.0134978
24259	-0.00107878	0.013592
24298	-0.00102156	0.0136088
24337	-0.00105971	0.0136289
24376	-0.00109786	0.0136316
24415	-0.00111693	0.0134014
24454	-0.00125045	0.0134439
24493	-0.00109786	0.0135074
24532	-0.00113601	0.0135395
24571	-0.00100249	0.0133237
24610	-0.00109786	0.0132079
24649	-0.00105971	0.0133128
24688	-0.00111693	0.0135631
24727	-0.000983412	0.0132278
24766	-0.00119323	0.0131287
24805	-0.00123138	0.012896
24844	-0.00104063	0.0133995
24883	-0.00111693	0.0131236
24922	-0.00104063	0.0127983
24961	-0.00105971	0.0130331
25000	-0.00100249	0.0129522
25039	-0.00105971	0.0130162
25078	-0.00104063	0.0127805
25117	-0.00113601	0.0128243
25156	-0.00107878	0.0130257
25195	-0.00109786	0.013139
25234	-2.00098	-23.7752
25273	-2.00092	-13.9775
25312	-2.00083	-10.8382
25351	-2.00102	-9.21957
25390	-2.00079	-8.199
25429	-2.00086	-7.48616
25468	-2.00098	-6.97532
25507	-2.00096	-6.61192
25546	-2.00096	-6.33774
25585	-2.0009	-6.09541
25624	-2.0009	-5.91623
25663	-2.00094	-5.77141
25702	-2.00088	-5.69398
25741	-2.00094	-5.59021
25780	-2.00092	-5.53107
25819	-2.00107	-5.47196
25858	-2.00092	-5.45888
25897	-2.00081	-5.41806
25936	-2.00109	-5.38765
25975	-2.00086	-5.38427
26014	-2.00092	-5.39289
26053	-2.00086	-5.41449
26092	-2.00096	-5.42731
26131	-0.00109786	4.76397
26170	-0.00100249	1.76163
26209	-0.00100249	1.11681
26248	-0.000888042	0.841748
26287	-0.00107878	0.696102
26326	-0.00113601	0.59856
26365	-0.00105971	0.532982
26404	-0.00092619	0.476727
26443	-0.00107878	0.433037
26482	-0.00119323	0.400676
26521	-0.000983412	0.373817
26560	-0.00119323	0.349324
26599	-0.00119323	0.325582
26638	-0.000983412	0.307319
26677	-0.00111693	0.291602
26716	-0.000945264	0.27876
26755	-0.00104063	0.263931
26794	-0.000983412	0.251372
26833	-0.00100249	0.240452
26872	-0.00111693	0.232217
26911	-0.00109786	0.222438
26950	-0.00111693	0.213034
26989	-0.0012886	0.205113
27028	-0.00117415	0.198588
27067	-0.00117415	0.192138
27106	-0.00102156	0.184613
27145	-0.00107878	0.17906
27184	-0.00104063	0.173495
27223	-0.00111693	0.169098
27262	-0.00115508	0.163245
27301	-0.00117415	0.158274
27340	-0.00102156	0.153627
27379	-0.00102156	0.150263
27418	-0.00105971	0.145692
27457	-0.00113601	0.141494
27496	-0.00107878	0.138245
27535	-0.000964338	0.135603
27574	-0.00115508	0.13253
27613	-0.00102156	0.128567
27652	-0.00105971	0.125646
27691	-0.000964338	0.122743
27730	-0.00092619	0.120637
27769	-0.00104063	0.117408
27808	-0.00102156	0.115054
27847	-0.00107878	0.112656
27886	-0.00092619	0.110832
27925	-0.00130767	0.108034
27964	-0.000945264	0.105689
28003	-0.00092619	0.103765
28042	-0.00092619	0.102344
28081	-0.00092619	0.100303
28120	-0.000983412	0.0980248
28159	-0.000983412	0.0961672
28198	-0.00109786	0.0944107
28237	-0.00107878	0.093432
28276	-0.00104063	0.0914021
28315	-0.00100249	0.0897453
28354	-0.00119323	0.0881028
28393	-0.00104063	0.0872892
28432	-0.00109786	0.0855004
28471	-0.00109786	0.0837234
28510	-0.00115508	0.0826051
28549	-0.00105971	0.0816205
28588	-0.00102156	0.08035
28627	-0.00119323	0.0789338
28666	-0.000964338	0.0778377
28705	-0.00102156	0.0765936
28744	-0.00107878	0.0758512
28783	-0.00107878	0.0745879
28822	1.4994	20.9172
28861	1.49925	9.68243
28900	1.49931	6.87002
28939	1.49923	5.55797
28978	1.49939	4.80707
29017	1.49918	4.37009
29056	1.49937	4.05567
29095	1.49944	3.80994
29134	1.49939	3.73956
29173	1.49939	3.70785
29212	1.49908	3.67284
29251	1.49931	3.5606
29290	1.49935	3.58037
29329	1.49927	3.61223
29368	1.49929	3.64947
29407	1.49937	3.56611
29446	1.49929	3.51231
29485	1.49919	3.63914
29524	1.49937	3.6923
29563	1.49935	3.63913
29602	1.49927	3.51307
29641	1.49918	3.61282
29680	1.49933	3.60461
29719	1.49933	3.6446
29758	1.49937	3.48633
29797	1.49914	3.46732
29836	1.49933	3.58333
29875	1.49931	3.59941
29914	1.49929	3.44867
29953	1.49923	3.33232
29992	1.49929	3.46468
30031	1.49931	3.5282
30070	1.49933	3.45711
30109	1.49923	3.30272
30148	1.49919	3.38367
30187	1.49929	3.43664
30226	1.49948	3.44148
30265	1.49939	3.3006
30304	1.49923	3.26344
30343	1.49937	3.31748
30382	1.49942	3.35998
30421	1.49944	3.30165
30460	1.49923	3.21404
30499	1.49925	3.28247
30538	1.49929	3.29627
30577	1.49937	3.24286
30616	-0.00123138	-3.59824
30655	-0.00104063	-0.936827
30694	-0.00119323	-0.487026
30733	-0.000868968	-0.314233
30772	-0.00092619	-0.22344
30811	-0.000868968	-0.167619
30850	-0.000868968	-0.131344
30889	-0.000964338	-0.106116
30928	-0.00105971	-0.0870376
30967	-0.00113601	-0.0730845
31006	-0.00107878	-0.0616702
31045	-0.00111693	-0.0526532
31084	-0.00104063	-0.0449193
31123	-0.00115508	-0.0395858
31162	-0.00102156	-0.0343571
31201	-0.000907116	-0.0299334
31240	-0.00115508	-0.0259609
31279	-0.00102156	-0.0227556
31318	-0.00104063	-0.0204374
31357	-0.00092619	-0.0178252
31396	-0.000983412	-0.0155152
31435	-0.00113601	-0.012913
31474	-0.00111693	-0.0118862
31513	-0.00102156	-0.0103459
31552	-0.00092619	-0.00868953
31591	-0.000983412	-0.00708022
31630	-0.00092619	-0.00635836
31669	-0.00105971	-0.00542173
31708	-0.00092619	-0.00427984
31747	-0.00102156	-0.00305288
31786	-0.00100249	-0.00246695
31825	-0.000983412	-0.0021389
31864	-0.00105971	-0.00119259
31903	-0.00104063	-0.000404384
31942	-0.000888042	0.000456347
31981	-0.00100249	0.000129993
32020	-0.00102156	0.000952042
32059	-0.00109786	0.00133888
32098	-0.000983412	0.0024865
32137	-0.00109786	0.00227713
32176	-0.00102156	0.00275427
32215	-0.00105971	0.00289949
32254	-0.00092619	0.00355405
32293	-0.00104063	0.00378067
32332	-0.00105971	0.00365405
32371	-0.000983412	0.00406301
32410	-0.000907116	0.00449653
32449	-0.00123138	0.00500745
32488	-0.00105971	0.00453696
32527	-0.00107878	0.00507534
32566	-0.00105971	0.00533863
32605	-0.00104063	0.00603696
32644	-0.00105971	0.0058945
32683	-0.000945264	0.00564862
32722	-0.00123138	0.00581589
32761	-0.00107878	0.00638168
32800	-0.00109786	0.00645765
32839	-0.00107878	0.00625014
32878	-0.000907116	0.00630502
32917	-0.000983412	0.00667595
32956	-0.00102156	0.00719009
32995	-0.00109786	0.00674185
33034	-0.00100249	0.00704669
33073	-0.00105971	0.00683043
33112	-0.000945264	0.00724147
33151	-0.00117415	0.00716636
33190	-0.000945264	0.0071715
33229	-0.000983412	0.00728168
33268	-0.00115508	0.00768923
33307	-0.000964338	0.00752189
33346	-0.00104063	0.00725565
33385	-0.00100249	0.00751834
33424	-0.00111693	0.00765755
33463	-0.00109786	0.00788795
33502	-0.000964338	0.00753292
33541	-0.00113601	0.00769568
33580	-0.00100249	0.00752968
33619	-0.000945264	0.0082804
33658	-0.00104063	0.0079043
33697	-0.00105971	0.0077511
33736	-0.00105971	0.00774864
33775	-0.00111693	0.00822529
33814	-0.000983412	0.00788797
33853	-0.00105971	0.00777166
33892	-0.00104063	0.00797616
33931	-0.00109786	0.00809488
33970	-0.00105971	0.00824392
34009	-0.000964338	0.00791195
34048	-0.00115508	0.00795586
34087	-0.00105971	0.00805631
34126	-0.00104063	0.00866439
34165	-0.00102156	0.00816345
34204	-0.00104063	0.00811967
34243	-0.00115508	0.0080263
34282	-0.000888042	0.00841972
34321	-0.00109786	0.00811726
34360	-0.00104063	0.00792237
34399	-0.00102156	0.00805313
34438	-0.00115508	0.00835453
34477	-0.000868968	0.00836805
34516	-0.00115508	0.00792869
34555	-0.00100249	0.00821056
34594	-0.000964338	0.00827719
34633	-0.000945264	0.00857294
34672	-0.00113601	0.0081256
34711	-0.00100249	0.00811085
34750	-0.00104063	0.00796703
34789	-0.00100249	0.0084824
34828	-0.00109786	0.00814329
34867	-0.00092619	0.00808685
34906	-0.00119323	0.0080564
34945	-0.00104063	0.00822417
34984	-0.000983412	0.00832448
35023	-0.00105971	0.00803093
35062	-0.00107878	0.00821628
35101	-0.00109786	0.00815459
35140	-0.000811746	0.00843851
35179	-0.00100249	0.00813983
35218	-0.00102156	0.00806273
35257	-0.00117415	0.00807681
35296	-0.00117415	0.00847692
35335	-0.00100249	0.00815236
35374	-0.00092619	0.00772804
35413	-0.00117415	0.00801464
35452	-0.000964338	0.00829545
35491	-0.00100249	0.00835668
35530	-0.00102156	0.00810467
35569	-0.00119323	0.00815987
35608	-0.00119323	0.00806526
35647	-0.00111693	0.00818905
35686	-0.00105971	0.00797259
35725	-0.000964338	0.00798008
35764	-0.00113601	0.00809334
35803	-0.00109786	0.00817042
35842	-0.00104063	0.00804892
35881	-0.00115508	0.0078276
35920	-0.00100249	0.00791164
35959	-0.000888042	0.00801423
35998	-0.00100249	0.00788783
36037	-0.00119323	0.00797829
36076	-0.000964338	0.00793019
36115	-0.00100249	0.00796113
36154	-0.00109786	0.00815297
36193	-0.000907116	0.00791685
36232	-0.00109786	0.00780708
36271	-0.000964338	0.00789329
36310	-0.00104063	0.00814579
36349	-0.000983412	0.00792258
36388	-0.00100249	0.00767771
36427	-0.00092619	0.00778783
36466	-0.00125045	0.00794002
36505	-0.00100249	0.00794708
36544	-0.000964338	0.00776125
36583	-0.00105971	0.00788581
36622	-0.00092619	0.00776403
36661	-0.00105971	0.00786284
36700	-0.00107878	0.00787803
36739	-0.00115508	0.00779305
36778	-0.00123138	0.00766608
36817	-0.000945264	0.00804668
36856	-0.00107878	0.00793717
36895	-0.00102156	0.007667
36934	-0.00100249	0.00769508
36973	-0.00100249	0.00784508
37012	-0.00100249	0.00783029
37051	-0.000983412	0.00777695
37090	-0.000888042	0.00774368
37129	-0.00104063	0.00738649
37168	-0.00102156	0.00778552
37207	-0.00125045	0.00762116
37246	-0.00102156	0.00756006
37285	-0.00107878	0.00754759
37324	-0.00104063	0.00784353
37363	-0.000964338	0.00758606
37402	-0.00105971	0.00748292
37441	-0.00111693	0.0075834
37480	-0.00100249	0.0077893
37519	-0.00104063	0.00767398
37558	-0.00109786	0.0073896
37597	-0.00100249	0.00745629
37636	-0.00092619	0.00750051
37675	-0.00113601	0.00767462
37714	-0.000964338	0.00736524
37753	-0.00092619	0.00738021
37792	-0.00100249	0.00734131
37831	-0.00119323	0.00766427
37870	-0.00092619	0.00746788
37909	-0.000945264	0.00733612
37948	-0.000945264	0.00739061
37987	-0.000964338	0.00748852
38026	-0.00102156	0.00749498
38065	-0.00100249	0.00719915
38104	-0.00111693	0.00736872
38143	-0.000964338	0.00749095
38182	-0.00105971	0.00760138
38221	-0.000945264	0.0073174
38260	-0.00104063	0.00732145
38299	-0.00109786	0.00736332
38338	-0.00102156	0.00750652
38377	-0.00109786	0.00742382
38416	-0.000868968	0.00729038
38455	-0.000983412	0.00720445
38494	-0.00107878	0.0073331
38533	-0.00104063	0.00720211
38572	-0.000983412	0.00712804
38611	-0.00105971	0.00721762
38650	-0.000964338	0.00724955
38689	-0.00111693	0.00739332
38728	-0.00092619	0.00720509
38767	-0.00105971	0.00720519
38806	-0.00102156	0.00720931
38845	-0.000907116	0.00732114
38884	-0.00105971	0.00711432
38923	-0.00100249	0.00710625
38962	-0.000983412	0.00708672
39001	-0.00100249	0.00722644
39040	-0.000964338	0.00707992
39079	-0.00109786	0.00694815
39118	-0.00105971	0.00707017
39157	-0.000964338	0.00720395
39196	-0.00113601	0.00720832
39235	-0.00100249	0.00691222
39274	-0.00104063	0.00703672
39313	-0.00123138	0.00703055
39352	-0.00100249	0.00727455
39391	-0.00104063	0.00708331
39430	-0.000964338	0.00702282
39469	-0.00107878	0.00704064
39508	-0.000945264	0.00712612
39547	-0.00102156	0.00702835
39586	-0.000964338	0.00697749
39625	-2.00071	-26.3067
39664	-2.00083	-11.6581
39703	-2.00081	-8.40654
39742	-2.00092	-6.8931
39781	-2.00086	-6.0778
39820	-2.00098	-5.57574
39859	-2.00096	-5.29064
39898	-2.00079	-5.06829
39937	-2.00086	-4.93389
39976	-2.00077	-4.84516
40015	-2.00073	-4.82001
40054	-2.00073	-4.78858
40093	-2.00088	-4.76647
40132	-2.00079	-4.76625
40171	-2.00086	-4.7832
40210	-2.00092	-4.80815
40249	-2.00092	-4.81126
40288	-2.00094	-4.82974
40327	-2.00073	-4.85646
40366	-2.00083	-4.89514
40405	-2.00086	-4.90723
40444	-2.00081	-4.92847
40483	-2.00094	-4.94863
40522	-0.000849894	7.44752
40561	-0.000907116	1.95534
40600	-0.00102156	1.03379
40639	-0.00100249	0.727882
40678	-0.00104063	0.579595
40717	-0.00107878	0.491955
40756	-0.00105971	0.425317
40795	-0.00102156	0.381162
40834	-0.000945264	0.346689
40873	-0.00111693	0.32139
40912	-0.00104063	0.296769
40951	-0.00102156	0.27663
40990	-0.000907116	0.260552
41029	-0.000983412	0.24733
41068	-0.00115508	0.234403
41107	-0.00100249	0.221897
41146	-0.000868968	0.21185
41185	-0.00109786	0.203143
41224	-0.00123138	0.195467
41263	-0.00092619	0.186617
41302	-0.00100249	0.179348
41341	-0.00109786	0.172716
41380	-0.00109786	0.167637
41419	-0.00107878	0.161416
41458	-0.00102156	0.155726
41497	-0.00105971	0.150708
41536	-0.00092619	0.146906
41575	-0.00102156	0.142447
41614	-0.00092619	0.137645
41653	-0.000983412	0.133802
41692	-0.00100249	0.130488
41731	-0.00109786	0.127385
41770	-0.000868968	0.123661
41809	-0.00100249	0.120532
41848	-0.000964338	0.117583
41887	-0.00092619	0.115371
41926	-0.00105971	0.112145
41965	-0.00109786	0.109435
42004	-0.00100249	0.106969
42043	-0.000983412	0.105205
42082	-0.00092619	0.102839
42121	-0.00109786	0.100247
42160	-0.00107878	0.098163
42199	-0.000983412	0.0965064
42238	-0.00109786	0.0947454
42277	-0.00111693	0.0925187
42316	-0.00117415	0.0907364
42355	-0.00105971	0.0892318
42394	-0.00109786	0.0878736
42433	-0.000983412	0.0860603
42472	-0.00092619	0.0844322
42511	-0.00100249	0.0829629
42550	-0.00100249	0.0819218
42589	-0.00092619	0.0804246
42628	-0.00100249	0.0788132
42667	-0.00102156	0.0775758
42706	-0.00117415	0.0765191
42745	-0.00111693	0.0754052
42784	-0.00100249	0.0739357
42823	-0.00109786	0.0726017
42862	-0.00105971	0.0717931
42901	-0.00113601	0.0711341
42940	-0.000945264	0.0697861
42979	-0.0012123	0.0686022
43018	-0.000964338	0.0675182
43057	-0.00104063	0.0670224
43096	-0.00109786	0.0659787
43135	-0.00111693	0.0648338
43174	-0.000907116	0.0640269
43213	1.49933	24.981
43252	1.49933	8.78109
43291	1.49933	5.92045
43330	1.49933	4.75881
43369	1.49937	4.20462
43408	1.49933	3.81316
43447	1.49927	3.65013
43486	1.49939	3.59808
43525	1.49919	3.58208
43564	1.49937	3.52254
43603	1.49918	3.48176
43642	1.49939	3.56262
43681	1.49933	3.6262
43720	1.49927	3.63739
43759	1.49944	3.54139
43798	1.49942	3.56637
43837	1.49925	3.6285
43876	1.49937	3.61998
43915	1.49937	3.49509
43954	1.49933	3.45215
43993	1.49944	3.5017
44032	1.49927	3.52671
44071	1.49931	3.45921
44110	1.49931	3.3491
44149	1.49921	3.40079
44188	1.49921	3.45155
44227	1.49935	3.4171
44266	1.49923	3.29367
44305	1.49925	3.32181
44344	1.49942	3.35089
44383	1.49939	3.3655
44422	1.49944	3.28733
44461	1.49931	3.24298
44500	1.49925	3.27049
44539	1.49948	3.26264
44578	1.49927	3.23098
44617	1.49925	3.11381
44656	1.49927	3.15454
44695	1.49927	3.2048
44734	1.49931	3.19083
44773	1.49933	3.09304
44812	1.49937	3.0797
44851	1.49923	3.1223
44890	1.49937	3.14248
44929	1.49939	3.06512
44968	1.49935	2.98666
45007	-0.00105971	-8.13761
45046	-0.00092619	-1.13802
45085	-0.00092619	-0.542697
45124	-0.00111693	-0.333651
45163	-0.00100249	-0.230965
45202	-0.00104063	-0.171817
45241	-0.00104063	-0.133923
45280	-0.000964338	-0.108037
45319	-0.00111693	-0.0889134
45358	-0.000964338	-0.0746767
45397	-0.00102156	-0.0633501
45436	-0.00092619	-0.0546217
45475	-0.00113601	-0.0479284
45514	-0.00102156	-0.0419288
45553	-0.00102156	-0.0368649
45592	-0.00109786	-0.0323035
45631	-0.00105971	-0.0293586
45670	-0.00105971	-0.0259729
45709	-0.00104063	-0.0230091
45748	-0.000945264	-0.0204514
45787	-0.00105971	-0.0185511
45826	-0.00102156	-0.0169272
45865	-0.000983412	-0.0152302
45904	-0.000983412	-0.0134024
45943	-0.00111693	-0.0120802
45982	-0.00115508	-0.0111434
46021	-0.00092619	-0.00989325
46060	-0.00107878	-0.00898141
46099	-0.000983412	-0.00778193
46138	-0.00100249	-0.00714655
46177	-0.00102156	-0.00635844
46216	-0.00100249	-0.00573813
46255	-0.00109786	-0.00473157
46294	-0.000868968	-0.00424674
46333	-0.000983412	-0.00368115
46372	-0.000964338	-0.00334579
46411	-0.00113601	-0.00264137
46450	-0.00104063	-0.00208109
46489	-0.00113601	-0.00193253
46528	-0.00100249	-0.00138483
46567	-0.000964338	-0.00116987
46606	-0.00104063	-0.000371121
46645	-0.00111693	-0.000626656
46684	-0.00111693	-2.49332e-06
46723	-0.00113601	0.000195136
46762	-0.00111693	0.000880457
46801	-0.00111693	0.000837742
46840	-0.00104063	0.000942772
46879	-0.00107878	0.00125325
46918	-0.00111693	0.00161181
46957	-0.00109786	0.0018706
46996	-0.00107878	0.00172534
47035	-0.00105971	0.00212535
47074	-0.00092619	0.00228244
47113	-0.000983412	0.00280352
47152	-0.00107878	0.00256262
47191	-0.00105971	0.00272171
47230	-0.00102156	0.00282431
47269	-0.00109786	0.00327477
47308	-0.00113601	0.00326541
47347	-0.00102156	0.00313857
47386	-0.000983412	0.00332855
47425	-0.00102156	0.00374303
47464	-0.00107878	0.00396814
47503	-0.00107878	0.00354249
47542	-0.000983412	0.00368591
47581	-0.00092619	0.00403593
47620	-0.00113601	0.00413377
47659	-0.000964338	0.00403285
47698	-0.000907116	0.00400342
47737	-0.00107878	0.00415727
47776	-0.00105971	0.00449589
47815	-0.00102156	0.00437964
47854	-0.00107878	0.0041766
47893	-0.00104063	0.00447016
47932	-0.00109786	0.00459083
47971	-0.00107878	0.00474409
48010	-0.00107878	0.00457055
48049	-0.00100249	0.00466206
48088	-0.00109786	0.00464174
48127	-0.00102156	0.00509077
48166	-0.00102156	0.00468466
48205	-0.00113601	0.00475655
48244	-0.00107878	0.00488511
48283	-0.00092619	0.00503384
48322	-0.000945264	0.00512209
48361	-0.00105971	0.00478134
48400	-0.00113601	0.00491874
48439	-0.000907116	0.005144
48478	-0.00107878	0.00521149
48517	-0.00109786	0.0049607
48556	-0.00104063	0.00523448
48595	-0.00107878	0.00505687
48634	-0.00107878	0.00551309
48673	-0.00107878	0.00507144
48712	-0.00115508	0.00524498
48751	-0.00100249	0.00534096
48790	-0.00100249	0.00560053
48829	-0.00100249	0.00530076
48868	-0.00107878	0.00521027
48907	-0.00092619	0.00541172
48946	-0.00102156	0.00564593
48985	-0.00102156	0.00587037
49024	-0.00107878	0.00529837
49063	-0.00117415	0.00545246
49102	-0.000945264	0.00550148
49141	-0.00100249	0.00558542
49180	-0.00105971	0.00555816
49219	-0.00100249	0.00554258
49258	-0.00100249	0.00547992
49297	-0.00107878	0.00580584
49336	-0.000964338	0.00556436
49375	-0.00109786	0.00547699
49414	-0.00111693	0.00564824
49453	-0.00113601	0.00584349
49492	-0.00107878	0.00557159
49531	-0.00092619	0.00554901
49570	-0.000983412	0.00563923
49609	-0.00107878	0.0057151
49648	-0.00104063	0.00596514
49687	-0.00105971	0.00556472
49726	-0.00105971	0.00562913
49765	-0.00100249	0.0057441
49804	-0.00100249	0.00589524
49843	-0.000983412	0.00564668
49882	-0.00117415	0.00564769
49921	-0.00115508	0.00570683
49960	-0.00092619	0.00578889
49999	-0.000888042	0.00572029
50038	-0.00123138	0.00561515
50077	-0.00113601	0.00579272
50116	-0.00109786	0.00582992
50155	-0.00104063	0.00588525
50194	-0.00111693	0.0056335
50233	-0.00102156	0.00568802
50272	-0.000945264	0.0057785
50311	-0.00104063	0.00594688
50350	-0.00111693	0.00579462
50389	-0.000945264	0.00568539
50428	-0.000945264	0.0057608
50467	-0.00107878	0.00598785
50506	-0.000907116	0.00589881
50545	-0.00105971	0.00568007
50584	-0.00104063	0.00588789
50623	-0.00107878	0.00580255
50662	-0.00092619	0.00602152
50701	-0.00104063	0.00571319
50740	-0.00100249	0.00577714
50779	-0.00107878	0.00587522
50818	-0.00109786	0.00588973
50857	-0.000983412	0.00570266
50896	-0.000964338	0.00556058
50935	-0.00104063	0.00567352
50974	-0.00092619	0.00594205
51013	-0.00107878	0.00582677
51052	-0.000849894	0.00573724
51091	-0.000964338	0.0057307
51130	-0.00107878	0.00582668
51169	-0.000945264	0.00593305
51208	-0.00107878	0.00576777
51247	-0.000983412	0.00572666
51286	-0.00105971	0.00578911
51325	-0.00111693	0.00599951
51364	-0.00105971	0.0057911
51403	-0.000983412	0.00577169
51442	-0.00102156	0.00579343
51481	-0.00104063	0.00589373
51520	-0.00092619	0.0057478
51559	-0.00100249	0.0058119
51598	-0.00113601	0.00572558
51637	-0.000983412	0.00591086
51676	-0.00107878	0.00591943
51715	-0.00102156	0.0056424
51754	-0.000964338	0.00563373
51793	-0.00107878	0.00561278
51832	-0.000868968	0.00593888
51871	-0.000888042	0.00571286
51910	-0.00113601	0.00582772
51949	-0.00105971	0.00577582
51988	-0.00104063	0.00590383
52027	-0.000945264	0.00576972
52066	-0.000868968	0.00574634
52105	-0.00115508	0.00579519
52144	-0.00105971	0.0057513
52183	-0.000983412	0.00581613
52222	-0.00111693	0.00566863
52261	-0.00107878	0.00577578
52300	-0.00107878	0.00557095
52339	-0.00117415	0.00570722
52378	-0.000964338	0.00579014
52417	-0.00102156	0.00575464
52456	-0.00113601	0.00561092
52495	-0.00100249	0.00571592
52534	-0.00119323	0.00579043
52573	-0.00113601	0.00557125
52612	-0.000888042	0.00565634
52651	-0.000964338	0.0056927
52690	-0.00107878	0.00569051
52729	-0.00109786	0.00559473
52768	-0.000907116	0.00550336
52807	-0.00104063	0.00574635
52846	-0.000945264	0.00569418
52885	-0.000983412	0.00554001
52924	-0.00092619	0.0056521
52963	-0.00092619	0.00555043
53002	-0.00105971	0.00583906
53041	-0.00107878	0.00562095
53080	-0.00107878	0.00546503
53119	-0.00100249	0.00553796
53158	-0.000907116	0.00563752
53197	-0.00111693	0.0055928
53236	-0.000964338	0.00555113
53275	-0.000964338	0.00546244
53314	-0.00113601	0.00548302
53353	-0.00083082	0.00576865
53392	-0.00111693	0.00549624
53431	-0.00113601	0.00548221
53470	-0.00100249	0.0055404
53509	-0.00107878	0.00563879
53548	-0.000964338	0.00562706
53587	-0.000983412	0.00554232
53626	-0.00100249	0.00557415
53665	-0.000983412	0.00565946
53704	-0.00102156	0.00561228
53743	-0.00104063	0.00558939
53782	-0.00113601	0.00558801
53821	-0.000907116	0.0054511
53860	-0.00107878	0.00571758
53899	-0.00105971	0.0055446
53938	-0.000983412	0.00555697
53977	-0.000964338	0.00555048
54016	-2.0009	-39.7695
54055	-2.00086	-11.6216
54094	-2.00079	-7.70676
54133	-2.00085	-6.24558
54172	-2.0009	-5.5782
54211	-2.00096	-5.24218
54250	-2.00079	-5.05603
54289	-2.00083	-4.98142
54328	-2.00085	-4.9606
54367	-2.00083	-4.98708
54406	-2.00079	-5.00633
54445	-2.00085	-5.04044
54484	-2.00081	-5.08008
54523	-2.0009	-5.14491
54562	-2.00094	-5.18857
54601	-2.00096	-5.23878
54640	-2.00086	-5.28452
54679	-2.00088	-5.34709
54718	-2.00073	-5.39434
54757	-2.00085	-5.43594
54796	-2.001	-5.48932
54835	-2.00092	-5.53949
54874	-2.00086	-5.58752
54913	-0.00104063	12.666
54952	-0.00119323	2.56383
54991	-0.00092619	1.14648
55030	-0.000945264	0.741368
55069	-0.0012123	0.559265
55108	-0.000983412	0.456263
55147	-0.00102156	0.393139
55186	-0.00105971	0.349467
55225	-0.00102156	0.316053
55264	-0.00092619	0.288614
55303	-0.00113601	0.26707
55342	-0.00115508	0.249171
55381	-0.000983412	0.234597
55420	-0.000983412	0.220189
55459	-0.00105971	0.20884
55498	-0.000907116	0.198746
55537	-0.000888042	0.19055
55576	-0.000983412	0.181969
55615	-0.000945264	0.174037
55654	-0.00113601	0.167168
55693	-0.00102156	0.161444
55732	-0.00104063	0.156038
55771	-0.00102156	0.150214
55810	-0.000964338	0.145098
55849	-0.00104063	0.140825
55888	-0.00102156	0.137101
55927	-0.00117415	0.132403
55966	-0.00111693	0.128703
56005	-0.000983412	0.125077
56044	-0.00100249	0.122398
56083	-0.00100249	0.118779
56122	-0.00111693	0.115664
56161	-0.000907116	0.112679
56200	-0.00111693	0.110082
56239	-0.00109786	0.10766
56278	-0.00100249	0.105027
56317	-0.000945264	0.102726
56356	-0.000907116	0.10031
56395	-0.00109786	0.0987735
56434	-0.000945264	0.0963517
56473	-0.000907116	0.0943454
56512	-0.000792671	0.0923828
56551	-0.00100249	0.0910322
56590	-0.00104063	0.0889585
56629	-0.00115508	0.0871342
56668	-0.00100249	0.0855243
56707	-0.00107878	0.0842069
56746	-0.00102156	0.0828214
56785	-0.000983412	0.0812573
56824	-0.000907116	0.0799194
56863	-0.00104063	0.0785069
56902	-0.00100249	0.0775756
56941	-0.00113601	0.0759341
56980	-0.000868968	0.0746997
57019	-0.00125045	0.0734214
57058	-0.00102156	0.0726779
57097	-0.00102156	0.0712759
57136	-0.00105971	0.070106
57175	-0.00104063	0.0690924
57214	-0.000888042	0.0680849
57253	-0.000945264	0.0673034
57292	-0.00100249	0.0661134
57331	-0.00102156	0.0651358
57370	-0.00104063	0.0643329
57409	-0.00104063	0.0637114
57448	-0.00102156	0.0625513
57487	-0.00109786	0.0616666
57526	-0.00113601	0.0608425
57565	-0.00092619	0.0602737
57600	-0.000964338	0.0592877