File: Data_04_Experiment/CA_001_C01.txt
time/s	Ewe/V	<I>/mA
1	1.49938	170.043
40	1.49922	14.0674
79	1.49938	10.9969
118	1.49943	10.054
157	1.49934	9.51433
196	1.49957	9.19664
235	1.49957	8.48434
274	1.4994	8.34382
313	1.49924	8.31408
352	1.49924	8.19595
391	1.49934	7.73721
430	1.49936	7.62228
469	1.49934	7.60605
508	1.49943	7.52041
547	1.49928	7.3072
586	1.49938	6.90617
625	1.49928	6.92247
664	1.49926	6.9707
703	1.4992	6.92253
742	1.49932	6.6302
781	1.49932	6.59783
820	1.4993	6.71497
859	1.49932	6.69921
898	1.49938	6.3915
937	1.49932	6.36951
976	1.49945	6.37518
1015	1.4993	6.37747
1054	1.49955	6.20108
1093	1.4993	6.05058
1132	1.4993	6.09245
1171	1.49932	6.08957
1210	1.49932	6.01046
1249	1.49953	5.72716
1288	1.49938	5.80194
1327	1.49943	5.83476
1366	1.49938	5.83655
1405	1.49949	5.56623
1444	1.49938	5.57466
1483	1.49947	5.5682
1522	1.49932	5.60872
1561	1.49941	5.48074
1600	1.49945	5.35926
1639	1.49943	5.42716
1678	1.49934	5.46536
1717	1.49953	5.44401
1756	1.49947	5.20246
1795	1.4993	5.27908
1833.95	-0.00099233	-0.628043
1872.95	-0.000877885	-0.143296
1911.95	-0.000858811	-0.0272735
1950.97	-0.000877885	0.016016
1989.97	-0.000916033	0.0371959
2028.97	-0.000916033	0.0496116
2067.97	-0.000954182	0.0587386
2106.97	-0.000858811	0.0629941
2145.97	-0.000896959	0.0661757
2184.97	-0.000954182	0.0683991
2223.97	-0.000916033	0.0707793
2262.97	-0.000896959	0.0718682
2301.97	-0.00114492	0.0720929
2340.97	-0.000896959	0.0725331
2379.97	-0.000896959	0.0730434
2418.97	-0.000935107	0.0739849
2457.97	-0.000858811	0.073506
2496.97	-0.0010114	0.0734445
2535.97	-0.000935107	0.0734879
2574.97	-0.000858811	0.0741702
2613.97	-0.000935107	0.0737321
2652.97	-0.000916033	0.0734243
2691.97	-0.000687144	0.0732641
2730.97	-0.000916033	0.0736916
2769.97	-0.000916033	0.0736421
2808.97	-0.000820663	0.073228
2847.97	-0.000839737	0.0731799
2886.97	-0.000858811	0.0734745
2925.97	-0.000973256	0.0738518
2964.97	-0.00099233	0.0733096
3003.97	-0.000896959	0.0731885
3042.97	-0.000877885	0.0731762
3081.97	-0.000744366	0.073568
3120.97	-0.000801589	0.0731686
3159.97	-0.000820663	0.0730003
3198.97	-0.000896959	0.0727
3237.97	-0.00099233	0.0733019
3276.97	-0.000820663	0.0731588
3315.97	-0.0010877	0.072812
3354.97	-0.000935107	0.0726785
3393.97	-0.0010114	0.0727961
3432.97	-0.000935107	0.073117
3471.97	-0.000858811	0.0726771
3510.97	-0.000877885	0.072259
3549.97	-0.000877885	0.0720649
3588.97	-0.000858811	0.0726943
3627.97	-0.00099233	0.0723013
3666.97	-0.000877885	0.0721208
3705.97	-0.000896959	0.0729597
3744.97	-0.000973256	0.072243
3783.97	-0.000896959	0.0719717
3822.97	-0.000858811	0.0715287
3861.97	-0.000954182	0.0713347
3900.97	-0.000839737	0.0712791
3939.97	-0.000935107	0.0713779
3978.97	-0.00104955	0.0708241
4017.97	-0.000916033	0.0707333
4056.97	-0.000973256	0.0704583
4095.97	-0.000935107	0.0707622
4134.97	-0.000820663	0.0702834
4173.97	-0.000935107	0.0698493
4212.97	-0.000973256	0.0695222
4251.97	-0.000820663	0.0696896
4290.97	-0.000744366	0.0694014
4329.97	-0.000896959	0.068815
4368.97	-0.000877885	0.0685512
4407.97	-0.000916033	0.0685035
4446.97	-0.0010114	0.0684006
4485.97	-0.000896959	0.0679395
4524.97	-0.0010114	0.0677127
4563.97	-0.000935107	0.0672913
4602.97	-0.000858811	0.0675218
4641.97	-0.000916033	0.0668858
4680.97	-0.000896959	0.0665482
4719.97	-0.000801589	0.0661032
4758.97	-0.000782515	0.0662363
4797.97	-0.000801589	0.0658654
4836.97	-0.000858811	0.065316
4875.97	-0.000782515	0.0651021
4914.97	-0.000858811	0.0649847
4953.97	-0.000858811	0.0648907
4992.97	-0.000935107	0.0642572
5031.97	-0.000706218	0.0639302
5070.97	-0.000782515	0.0636465
5109.97	-0.000973256	0.063822
5148.97	-0.000916033	0.0631487
5187.97	-0.000820663	0.0628705
5226.97	-0.000973256	0.0625274
5265.97	-0.000782515	0.0626044
5304.97	-0.000896959	0.0622436
5343.97	-0.000896959	0.0616872
5382.97	-0.000916033	0.0614481
5421.97	-0.000858811	0.061335
5460.97	-0.000858811	0.0612861
5499.97	-0.000820663	0.0607515
5538.97	-0.000744366	0.0604682
5577.97	-0.000973256	0.060189
5616.97	-0.000877885	0.0602361
5655.97	-0.000896959	0.0597681
5694.97	-0.000877885	0.0593904
5733.97	-0.000801589	0.0591349
5772.97	-0.000896959	0.0593293
5811.97	-0.000820663	0.0588257
5850.97	-0.000973256	0.0586407
5889.97	-0.000744366	0.058102
5928.97	-0.000954182	0.0580434
5967.97	-0.000973256	0.0579385
6006.97	-0.000820663	0.0574317
6045.97	-0.000954182	0.0572197
6084.97	-0.000877885	0.0569888
6123.97	-0.000820663	0.0571245
6162.97	-0.000935107	0.0565345
6201.97	-0.000839737	0.0562615
6240.97	-0.000916033	0.0560219
6279.97	-0.000954182	0.0561475
6318.97	-0.00112585	0.0558591
6357.97	-0.000820663	0.0554493
6396.97	-0.000916033	0.0551236
6435.97	-0.000954182	0.0550966
6474.97	-0.000877885	0.0549383
6513.97	-0.000896959	0.0545586
6552.97	-0.000858811	0.0544345
6591.97	-0.000877885	0.0542065
6630.97	-0.000896959	0.0542562
6669.97	-0.000935107	0.0537643
6708.97	-0.000839737	0.0535298
6747.97	-0.000916033	0.0533271
6786.97	-0.00103048	0.053361
6825.97	-0.000916033	0.0531404
6864.97	-0.000839737	0.0527588
6903.97	-0.000687144	0.0525106
6942.97	-0.000916033	0.0525521
6981.97	-0.000896959	0.0524197
7020.97	-0.000877885	0.0518965
7059.97	-0.000839737	0.0519191
7098.97	-0.000954182	0.0518946
7137.97	-0.0010114	0.0518331
7176.97	-0.000858811	0.0515422
7215.97	-0.000935107	0.0512
7254.97	-0.000839737	0.0509773
7293.97	-0.000877885	0.0510992
7332.97	-0.000877885	0.0507325
7371.97	-0.000973256	0.0504532
7410.97	-0.000782515	0.0502664
7449.97	-0.000896959	0.0503397
7488.97	-0.000858811	0.0503043
7527.97	-0.000725292	0.049935
7566.97	-0.000935107	0.0496152
7605.97	-0.000935107	0.04965
7644.97	-0.000896959	0.0495843
7683.97	-0.000916033	0.0492859
7722.97	-0.000935107	0.0490841
7761.97	-0.000896959	0.0488915
7800.97	-0.00099233	0.049119
7839.97	-0.000877885	0.0487512
7878.97	-0.000782515	0.0485335
7917.97	-0.000782515	0.0483304
7956.97	-0.000877885	0.0483604
7995.97	-0.000858811	0.0483042
8034.97	-0.000954182	0.0480276
8073.97	-0.000839737	0.0477352
8112.97	-0.000801589	0.0476787
8151.97	-0.000839737	0.0477081
8190.97	-0.00099233	0.0474606
8229.97	-0.000973256	0.0473114
8268.97	-0.0010114	0.0471164
8307.97	-0.000954182	0.0472173
8346.97	-0.00103048	0.0469608
8385.97	-0.000896959	0.0467483
8424.97	-0.000954182	0.0465235
8463.97	-0.00099233	0.0466136
8502.97	-0.00066807	0.04653
8541.97	-0.000896959	0.0462467
8580.97	-0.00104955	0.0461029
8619.97	-0.000839737	0.046016
8658.97	-0.000896959	0.0460864
8697.97	-0.000744366	0.0457956
8736.97	-0.000782515	0.0456121
8775.97	-0.00103048	0.0454877
8814.97	-0.000935107	0.0455593
8853.97	-0.000744366	0.0453996
8892.97	-0.00104955	0.045231
8931.97	-0.000744366	0.0450418
8970.97	-0.000935107	0.0451717
9009.97	-0.000896959	0.0450153
9048.97	-0.000877885	0.0448007
9087.97	-0.000954182	0.0445527
9126.97	-0.000896959	0.044511
9165.97	-0.000973256	0.0445756
9204.97	-0.000916033	0.0443722
9243.97	-0.000935107	0.0441716
9282.97	-0.000858811	0.0442588
9321.97	-0.000858811	0.0441261
9360.97	-0.000763441	0.0440067
9399.97	-0.000820663	0.0438279
9438.97	-0.000763441	0.0437653
9477.97	-0.000763441	0.043744
9516.97	-0.000820663	0.0435723
9555.97	-0.000954182	0.0433923
9594.97	-0.000782515	0.0432878
9633.97	-0.000896959	0.0432673
9672.97	-0.000858811	0.0433984
9711.97	-0.000954182	0.0429921
9750.97	-0.000763441	0.0428089
9789.97	-0.000858811	0.042704
9828.97	-0.000896959	0.0429293
9867.97	-0.000916033	0.0425579
9906.97	-0.000839737	0.0425231
9945.97	-0.000858811	0.042404
9984.97	-0.000839737	0.0425604
10024	-0.000954182	0.0423398
10063	-0.000858811	0.0422653
10102	-0.000973256	0.0420438
10141	-0.000877885	0.0421064
10180	-0.000839737	0.0421084
10219	-0.000839737	0.0419699
10258	-0.000820663	0.0416534
10297	-0.000839737	0.0416888
10336	-0.000935107	0.0417313
10375	-0.000858811	0.0414985
10414	-0.000839737	0.0413222
10453	-0.000935107	0.0412884
10492	-0.00103048	0.0414015
10531	-0.000877885	0.0411911
10570	-0.000801589	0.0410376
10609	-0.00099233	0.0409883
10648	-0.000820663	0.0409266
10687	-0.000935107	0.0409627
10726	-0.000858811	0.0408213
10765	-0.0010877	0.0406783
10804	-2.00076	-221.774
10843	-2.00072	-38.661
10882	-2.00082	-21.5518
10921	-2.00072	-15.2733
10960	-2.00072	-12.2093
10999	-2.0007	-10.5358
11038	-2.00061	-9.53827
11077	-2.00066	-8.89777
11116	-2.00072	-8.51231
11155	-2.00084	-8.28692
11194	-2.00059	-8.17382
11233	-2.00059	-8.12049
11272	-2.0007	-8.1234
11311	-2.00076	-8.17208
11350	-2.00061	-8.22825
11389	-2.00072	-8.29989
11428	-2.0007	-8.39443
11467	-2.00068	-8.48714
11506	-2.00076	-8.58776
11545	-2.00057	-8.7
11584	-2.00074	-8.80208
11623	-2.0007	-8.90004
11662	-2.0008	-9.00602
11701	-0.000763441	261.504
11740	-0.000935107	4.97692
11779	-0.000763441	3.0704
11818	-0.000896959	2.44232
11857	-0.000725292	2.14598
11896	-0.000782515	1.94922
11935	-0.000820663	1.80942
11974	-0.000896959	1.69889
12013	-0.000839737	1.61142
12052	-0.000877885	1.52144
12091	-0.000896959	1.43501
12130	-0.0010114	1.35413
12169	-0.000839737	1.27584
12208	-0.000935107	1.18574
12247	-0.00099233	1.08248
12286	-0.000954182	0.980318
12325	-0.000877885	0.888288
12364	-0.000839737	0.821617
12403	-0.000916033	0.767726
12442	-0.000954182	0.725148
12481	-0.000782515	0.689886
12520	-0.000877885	0.662132
12559	-0.000935107	0.633869
12598	-0.000858811	0.607766
12637	-0.000877885	0.584715
12676	-0.000839737	0.565492
12715	-0.000916033	0.546722
12754	-0.000954182	0.527008
12793	-0.000725292	0.509352
12832	-0.000877885	0.493419
12871	-0.000954182	0.477418
12910	-0.000935107	0.461345
12949	-0.000973256	0.446361
12988	-0.000935107	0.43245
13027	-0.000896959	0.420993
13066	-0.00099233	0.407714
13105	-0.000858811	0.394633
13144	-0.000820663	0.38255
13183	-0.000839737	0.372341
13222	-0.000820663	0.362123
13261	-0.000896959	0.351071
13300	-0.00099233	0.341137
13339	-0.000954182	0.332048
13378	-0.0010114	0.32413
13417	-0.000858811	0.314836
13456	-0.000820663	0.306276
13495	-0.000877885	0.298169
13534	-0.000935107	0.291737
13573	-0.0010114	0.284128
13612	-0.000896959	0.276572
13651	-0.000954182	0.269577
13690	-0.000916033	0.263965
13729	-0.000839737	0.258121
13768	-0.000877885	0.251584
13807	-0.000973256	0.245554
13846	-0.000896959	0.240231
13885	-0.000839737	0.235476
13924	-0.000973256	0.229516
13963	-0.000839737	0.22414
14002	-0.000896959	0.219283
14041	-0.000839737	0.215425
14080	-0.000782515	0.210493
14119	-0.000954182	0.205672
14158	-0.000858811	0.201374
14197	-0.000801589	0.197945
14236	-0.000954182	0.194061
14275	-0.000706218	0.189642
14314	-0.000896959	0.185915
14353	-0.000858811	0.182584
14392	-0.000801589	0.17972
14431	1.49951	48.0407
14470	1.49943	29.5794
14509	1.49943	22.0739
14548	1.49941	17.823
14587	1.49943	14.9475
14626	1.49919	12.7902
14665	1.49924	11.1156
14704	1.4993	9.76185
14743	1.49936	8.67571
14782	1.49938	7.78296
14821	1.4994	7.05044
14860	1.49936	6.42667
14899	1.49934	5.91744
14938	1.49936	5.50639
14977	1.49932	5.15723
15016	1.4994	4.86288
15055	1.49924	4.56886
15094	1.49947	4.36915
15133	1.49947	4.18817
15172	1.4993	4.03583
15211	1.49943	3.87978
15250	1.49926	3.73983
15289	1.4992	3.65292
15328	1.49947	3.58557
15367	1.49926	3.51104
15406	1.49943	3.35509
15445	1.4992	3.29972
15484	1.49936	3.2642
15523	1.49943	3.21838
15562	1.49949	3.10688
15601	1.49945	3.04169
15640	1.49947	3.07039
15679	1.49938	3.0346
15718	1.49957	2.96396
15757	1.49934	2.8311
15796	1.49926	2.78257
15835	1.49941	2.75228
15874	1.49949	2.76706
15913	1.49938	2.65416
15952	1.49926	2.59412
15991	1.49943	2.56983
16030	1.49947	2.53584
16069	1.49941	2.47137
16108	1.49934	2.41392
16147	1.49926	2.44133
16186	1.4993	2.41852
16225	-0.000916033	-2.03244
16264	-0.000916033	-0.383239
16303	-0.000877885	-0.102942
16342	-0.000839737	-0.0222214
16381	-0.00103048	0.0115937
16420	-0.000973256	0.0284109
16459	-0.000877885	0.0364859
16498	-0.0010114	0.0413208
16537	-0.000839737	0.0446279
16576	-0.000877885	0.0478826
16615	-0.000973256	0.0488756
16654	-0.000877885	0.0498858
16693	-0.000858811	0.05029
16732	-0.000916033	0.0512253
16771	-0.000763441	0.0513963
16810	-0.000839737	0.0511447
16849	-0.000973256	0.0514984
16888	-0.000782515	0.0518869
16927	-0.000973256	0.0520324
16966	-0.000954182	0.0515681
17005	-0.000763441	0.0510554
17044	-0.000954182	0.0506359
17083	-0.000896959	0.0512774
17122	-0.000916033	0.0509033
17161	-0.000954182	0.0505935
17200	-0.000820663	0.0502349
17239	-0.000763441	0.0506029
17278	-0.000935107	0.0503567
17317	-0.000858811	0.0500462
17356	-0.000896959	0.0497015
17395	-0.000763441	0.0497905
17434	-0.000896959	0.0497599
17473	-0.000858811	0.0491601
17512	-0.000820663	0.0487326
17551	-0.000877885	0.0484651
17590	-0.000954182	0.0487453
17629	-0.000896959	0.0482122
17668	-0.000896959	0.0476986
17707	-0.000973256	0.0473716
17746	-0.00099233	0.047849
17785	-0.000763441	0.0477568
17824	-0.000858811	0.0470872
17863	-0.000877885	0.0467457
17902	-0.000877885	0.0466617
17941	-0.000858811	0.0466504
17980	-0.000801589	0.0460122
18019	-0.000935107	0.0456878
18058	-0.000858811	0.0454079
18097	-0.000916033	0.0456675
18136	-0.000935107	0.0456158
18175	-0.000820663	0.045011
18214	-0.000839737	0.0446648
18253	-0.00099233	0.0447642
18292	-0.000839737	0.0444338
18331	-0.000839737	0.0441032
18370	-0.000954182	0.0441251
18409	-0.000935107	0.0439574
18448	-0.000954182	0.043787
18487	-0.000801589	0.0431994
18526	-0.000896959	0.042964
18565	-0.000935107	0.0426459
18604	-0.0010114	0.0427807
18643	-0.000877885	0.0425201
18682	-0.000954182	0.0421661
18721	-0.000706218	0.0418789
18760	-0.000820663	0.0421508
18799	-0.000801589	0.0418855
18838	-0.000973256	0.0415312
18877	-0.000896959	0.0412767
18916	-0.00104955	0.0413108
18955	-0.000820663	0.0412918
18994	-0.000858811	0.0409753
19033	-0.000782515	0.0404478
19072	-0.000839737	0.0405104
19111	-0.000954182	0.0407403
19150	-0.000782515	0.0404144
19189	-0.000916033	0.0399724
19228	-0.000801589	0.0397385
19267	-0.000858811	0.0400327
19306	-0.000839737	0.0398906
19345	-0.0010114	0.0394102
19384	-0.000973256	0.0393046
19423	-0.000858811	0.039502
19462	-0.000820663	0.0394144
19501	-0.000801589	0.0390291
19540	-0.000858811	0.038674
19579	-0.000782515	0.0385575
19618	-0.000954182	0.0386487
19657	-0.000954182	0.0384326
19696	-0.000935107	0.0382171
19735	-0.000858811	0.0380402
19774	-0.000839737	0.0381232
19813	-0.000877885	0.0378692
19852	-0.00099233	0.0375592
19891	-0.000839737	0.0374858
19930	-0.000725292	0.0378309
19969	-0.000935107	0.037925
20008	-0.000763441	0.0375326
20047	-0.000858811	0.0372208
20086	-0.000916033	0.0371021
20125	-0.000820663	0.0372074
20164	-0.000801589	0.036979
20203	-0.000877885	0.0368499
20242	-0.000877885	0.0365011
20281	-0.000935107	0.0366275
20320	-0.000858811	0.0364183
20359	-0.000896959	0.0361647
20398	-0.000858811	0.0361429
20437	-0.000744366	0.0362462
20476	-0.000820663	0.0360481
20515	-0.000896959	0.03573
20554	-0.000744366	0.0355489
20593	-0.000858811	0.0354519
20632	-0.000935107	0.0356078
20671	-0.000858811	0.035417
20710	-0.000954182	0.0351825
20749	-0.000839737	0.0349601
20788	-0.000877885	0.0351851
20827	-0.000916033	0.0350895
20866	-0.000801589	0.0348175
20905	-0.00099233	0.0346788
20944	-0.000916033	0.0347815
20983	-0.000954182	0.0346152
21022	-0.000877885	0.0343145
21061	-0.000858811	0.0343372
21100	-0.000877885	0.0343427
21139	-0.00118307	0.0343593
21178	-0.000973256	0.03421
21217	-0.000935107	0.0340444
21256	-0.000839737	0.0337776
21295	-0.000916033	0.0340056
21334	-0.000935107	0.0339609
21373	-0.000877885	0.0336302
21412	-0.000801589	0.0336327
21451	-0.000877885	0.0336202
21490	-0.000877885	0.0337458
21529	-0.000877885	0.0335138
21568	-0.000782515	0.0332449
21607	-0.000973256	0.0331439
21646	-0.00099233	0.033188
21685	-0.000916033	0.0329513
21724	-0.000820663	0.0328307
21763	-0.000782515	0.0326605
21802	-0.000916033	0.0328211
21841	-0.00099233	0.032689
21880	-0.000896959	0.0324141
21919	-0.000858811	0.0321272
21958	-0.000973256	0.0324003
21997	-0.000877885	0.0322411
22036	-0.000839737	0.0319818
22075	-0.000954182	0.0319172
22114	-0.000877885	0.0320275
22153	-0.00099233	0.0322285
22192	-0.00103048	0.0319167
22231	-0.000954182	0.0318191
22270	-0.000839737	0.0316701
22309	-0.000916033	0.0317727
22348	-0.000877885	0.0316799
22387	-0.000858811	0.0314958
22426	-0.000896959	0.0312549
22465	-0.000839737	0.0314412
22504	-0.000954182	0.0313058
22543	-0.000973256	0.0312538
22582	-0.000896959	0.0311643
22621	-0.00104955	0.0310842
22660	-0.000782515	0.0311925
22699	-0.0010114	0.0309448
22738	-0.000916033	0.0308254
22777	-0.000839737	0.0306427
22816	-0.000801589	0.0308723
22855	-0.000973256	0.0307492
22894	-0.000820663	0.0305999
22933	-0.000896959	0.0304644
22972	-0.000839737	0.0304674
23011	-0.000839737	0.0304326
23050	-0.000858811	0.0302663
23089	-0.000896959	0.0302152
23128	-0.000877885	0.0303336
23167	-0.000935107	0.0302799
23206	-0.000820663	0.0301815
23245	-0.000896959	0.0300536
23284	-0.000935107	0.0299466
23323	-0.000935107	0.0300665
23362	-0.000820663	0.0299941
23401	-0.000801589	0.0297625
23440	-0.000973256	0.0296705
23479	-0.000782515	0.029778
23518	-0.000820663	0.0297904
23557	-0.000935107	0.0295648
23596	-0.000820663	0.0294883
23635	-0.000782515	0.0294477
23674	-0.000801589	0.0295631
23713	-0.000877885	0.0293655
23752	-0.000935107	0.0292185
23791	-0.000839737	0.0291094
23830	-0.000839737	0.0293533
23869	-0.000896959	0.0291123
23908	-0.000820663	0.0288076
23947	-0.000839737	0.0288574
23986	-0.000839737	0.0290442
24025	-0.000820663	0.0289507
24064	-0.000954182	0.0286828
24103	-0.000916033	0.0285489
24142	-0.000858811	0.0287226
24181	-0.000801589	0.0286647
24220	-0.000973256	0.0284171
24259	-0.000954182	0.0283919
24298	-0.000935107	0.0285979
24337	-0.000839737	0.0287531
24376	-0.000877885	0.0285029
24415	-0.0010114	0.0283396
24454	-0.000839737	0.0283503
24493	-0.000763441	0.0284344
24532	-0.000839737	0.0282756
24571	-0.000896959	0.0281519
24610	-0.000916033	0.028078
24649	-0.000858811	0.0281257
24688	-0.000896959	0.0281167
24727	-0.000877885	0.027904
24766	-0.000916033	0.0278327
24805	-0.000858811	0.0278141
24844	-0.000916033	0.0279181
24883	-0.000954182	0.0277006
24922	-0.000896959	0.0277038
24961	-0.000839737	0.0274998
25000	-0.000744366	0.0277342
25039	-0.000935107	0.0274843
25078	-0.00103048	0.0274351
25117	-0.00099233	0.0272845
25156	-0.000954182	0.0274414
25195	-0.000858811	0.0275071
25234	-2.00074	-40.9638
25273	-2.00076	-22.2199
25312	-2.00055	-15.1893
25351	-2.00076	-11.721
25390	-2.00076	-9.70514
25429	-2.00066	-8.42974
25468	-2.00087	-7.57801
25507	-2.00068	-6.99524
25546	-2.00066	-6.58094
25585	-2.00072	-6.28169
25624	-2.00063	-6.07165
25663	-2.00063	-5.93282
25702	-2.00063	-5.83668
25741	-2.00078	-5.7663
25780	-2.0007	-5.72284
25819	-2.0007	-5.70424
25858	-2.00055	-5.70103
25897	-2.00072	-5.6917
25936	-2.00078	-5.70741
25975	-2.00076	-5.73173
26014	-2.00072	-5.74947
26053	-2.00078	-5.80257
26092	-2.00084	-5.82001
26131	-0.0010114	5.42147
26170	-0.000877885	2.45381
26209	-0.000858811	1.69905
26248	-0.000839737	1.32654
26287	-0.000954182	1.10497
26326	-0.000973256	0.964788
26365	-0.000954182	0.872255
26404	-0.000935107	0.80522
26443	-0.000973256	0.759204
26482	-0.000820663	0.726195
26521	-0.000916033	0.701724
26560	-0.00106863	0.674379
26599	-0.000820663	0.649277
26638	-0.000896959	0.625643
26677	-0.000782515	0.605988
26716	-0.000954182	0.585037
26755	-0.00099233	0.563089
26794	-0.00104955	0.541714
26833	-0.0010114	0.522874
26872	-0.000935107	0.503838
26911	-0.000858811	0.481426
26950	-0.000877885	0.460862
26989	-0.000839737	0.439241
27028	-0.000839737	0.418091
27067	-0.000896959	0.395221
27106	-0.000916033	0.374513
27145	-0.000858811	0.358167
27184	-0.000839737	0.346473
27223	-0.000763441	0.33549
27262	-0.000954182	0.325458
27301	-0.000801589	0.316762
27340	-0.000725292	0.309893
27379	-0.000858811	0.303775
27418	-0.000858811	0.296074
27457	-0.000877885	0.289191
27496	-0.000858811	0.283059
27535	-0.000744366	0.278696
27574	-0.000896959	0.27284
27613	-0.000935107	0.267432
27652	-0.000858811	0.262754
27691	-0.000973256	0.259294
27730	-0.000916033	0.254479
27769	-0.000973256	0.249609
27808	-0.000916033	0.245252
27847	-0.000916033	0.241798
27886	-0.000763441	0.238204
27925	-0.000935107	0.233967
27964	-0.000973256	0.229783
28003	-0.000839737	0.226188
28042	-0.00104955	0.223412
28081	-0.000916033	0.219534
28120	-0.000839737	0.215901
28159	-0.000763441	0.212413
28198	-0.000820663	0.209772
28237	-0.000896959	0.20647
28276	-0.000973256	0.202966
28315	-0.000820663	0.199615
28354	-0.000763441	0.197141
28393	-0.000877885	0.194572
28432	-0.000839737	0.191198
28471	-0.000916033	0.188449
28510	-0.000954182	0.185527
28549	-0.000839737	0.183703
28588	-0.000839737	0.180688
28627	-0.000858811	0.17759
28666	-0.000916033	0.174989
28705	-0.000839737	0.173134
28744	-0.00099233	0.170659
28783	-0.000858811	0.167682
28822	1.49936	34.0837
28861	1.49936	18.0777
28900	1.49934	13.2819
28939	1.49938	10.8933
28978	1.49941	9.37643
29017	1.4993	8.23207
29056	1.49928	7.30787
29095	1.49938	6.5368
29134	1.49932	5.88246
29173	1.49941	5.3323
29212	1.49932	4.87281
29251	1.49943	4.47899
29290	1.49945	4.15796
29329	1.4994	3.89573
29368	1.49936	3.66732
29407	1.49943	3.4808
29446	1.49938	3.31666
29485	1.49934	3.17431
29524	1.4993	3.0502
29563	1.49936	2.93198
29602	1.49926	2.84055
29641	1.49936	2.74596
29680	1.49932	2.66567
29719	1.4994	2.58599
29758	1.49924	2.52704
29797	1.49945	2.46338
29836	1.49951	2.41017
29875	1.49945	2.35484
29914	1.49941	2.30701
29953	1.49936	2.26613
29992	1.49934	2.2278
30031	1.49932	2.189
30070	1.49932	2.14561
30109	1.49947	2.10736
30148	1.49941	2.07365
30187	1.49934	2.04477
30226	1.49936	2.01319
30265	1.49924	1.98774
30304	1.4994	1.96897
30343	1.49924	1.9513
30382	1.49924	1.93055
30421	1.49949	1.90649
30460	1.49947	1.89321
30499	1.4993	1.8812
30538	1.49943	1.86902
30577	1.49936	1.84453
30616	-0.000839737	-3.66545
30655	-0.00099233	-0.653165
30694	-0.000916033	-0.123894
30733	-0.000877885	0.0107865
30772	-0.000763441	0.0497016
30811	-0.000725292	0.0615166
30850	-0.000954182	0.0647752
30889	-0.00099233	0.064917
30928	-0.00106863	0.0632238
30967	-0.000820663	0.0603987
31006	-0.000954182	0.0583338
31045	-0.000896959	0.0567613
31084	-0.000973256	0.0556737
31123	-0.000973256	0.0538744
31162	-0.000935107	0.0521916
31201	-0.000935107	0.0510753
31240	-0.000896959	0.0506672
31279	-0.000916033	0.0494498
31318	-0.000935107	0.0482924
31357	-0.000782515	0.0472586
31396	-0.000839737	0.0468811
31435	-0.00099233	0.046359
31474	-0.000916033	0.0454151
31513	-0.000916033	0.0447414
31552	-0.000916033	0.0441504
31591	-0.000896959	0.0438996
31630	-0.000973256	0.0429453
31669	-0.000916033	0.0422314
31708	-0.000839737	0.04193
31747	-0.000896959	0.0420328
31786	-0.000916033	0.0412943
31825	-0.000916033	0.0406146
31864	-0.000877885	0.0401657
31903	-0.000820663	0.0400282
31942	-0.000916033	0.039698
31981	-0.000896959	0.0389728
32020	-0.0010114	0.0385064
32059	-0.000801589	0.0383995
32098	-0.00066807	0.0383223
32137	-0.000839737	0.0377341
32176	-0.000782515	0.037257
32215	-0.000954182	0.0368997
32254	-0.00099233	0.0370195
32293	-0.000839737	0.0365764
32332	-0.000839737	0.036074
32371	-0.000916033	0.0357466
32410	-0.000954182	0.0358025
32449	-0.000820663	0.035573
32488	-0.000935107	0.0350873
32527	-0.000725292	0.0347413
32566	-0.000877885	0.0345947
32605	-0.000935107	0.0346333
32644	-0.000916033	0.0342119
32683	-0.000954182	0.03384
32722	-0.000973256	0.0336025
32761	-0.000896959	0.0336853
32800	-0.000782515	0.0333104
32839	-0.000916033	0.0329777
32878	-0.000916033	0.032668
32917	-0.000877885	0.0326778
32956	-0.000935107	0.0324742
32995	-0.000763441	0.0321152
33034	-0.00104955	0.0318288
33073	-0.000858811	0.0317512
33112	-0.000839737	0.0317595
33151	-0.000725292	0.0314569
33190	-0.000839737	0.0311816
33229	-0.000896959	0.03082
33268	-0.000877885	0.0310983
33307	-0.00112585	0.0306606
33346	-0.000706218	0.0304146
33385	-0.000839737	0.0303459
33424	-0.000877885	0.0304277
33463	-0.000687144	0.0300929
33502	-0.000877885	0.0297504
33541	-0.000801589	0.0297349
33580	-0.0010114	0.029624
33619	-0.000916033	0.029559
33658	-0.000820663	0.0293102
33697	-0.000916033	0.029109
33736	-0.000820663	0.0289682
33775	-0.000877885	0.0290618
33814	-0.000858811	0.0286619
33853	-0.000782515	0.0285052
33892	-0.000973256	0.0282107
33931	-0.000801589	0.0283739
33970	-0.0010114	0.0281847
34009	-0.000858811	0.0279343
34048	-0.000839737	0.0279107
34087	-0.00099233	0.0278196
34126	-0.000858811	0.0277826
34165	-0.000839737	0.0274085
34204	-0.000896959	0.0272706
34243	-0.000801589	0.0272018
34282	-0.000839737	0.0273015
34321	-0.000801589	0.0270835
34360	-0.000877885	0.0269553
34399	-0.000858811	0.0268239
34438	-0.000877885	0.0268345
34477	-0.000877885	0.0266356
34516	-0.000877885	0.0263294
34555	-0.000877885	0.0263107
34594	-0.000954182	0.0263415
34633	-0.000896959	0.026324
34672	-0.000935107	0.0259892
34711	-0.000801589	0.0258568
34750	-0.000877885	0.0258205
34789	-0.000916033	0.0260238
34828	-0.000954182	0.0256185
34867	-0.000896959	0.0254895
34906	-0.000858811	0.025341
34945	-0.000839737	0.0254735
34984	-0.000839737	0.0252706
35023	-0.000839737	0.0250453
35062	-0.000839737	0.024984
35101	-0.000801589	0.0250522
35140	-0.000973256	0.0250416
35179	-0.000820663	0.0249391
35218	-0.000858811	0.0246798
35257	-0.000839737	0.0244866
35296	-0.000801589	0.024619
35335	-0.000896959	0.0244083
35374	-0.000858811	0.0241691
35413	-0.000877885	0.0240939
35452	-0.000744366	0.0243188
35491	-0.000916033	0.0241056
35530	-0.000706218	0.0240469
35569	-0.000877885	0.0237296
35608	-0.000973256	0.0238453
35647	-0.000801589	0.0237873
35686	-0.000839737	0.0235085
35725	-0.000896959	0.0232657
35764	-0.000896959	0.0234999
35803	-0.000839737	0.0234774
35842	-0.00066807	0.0233498
35881	-0.000954182	0.0231458
35920	-0.000858811	0.0229964
35959	-0.000954182	0.0232373
35998	-0.000973256	0.0230748
36037	-0.000877885	0.0229245
36076	-0.000877885	0.022783
36115	-0.000801589	0.0228298
36154	-0.000763441	0.0228223
36193	-0.000896959	0.0225213
36232	-0.000839737	0.0226244
36271	-0.000763441	0.0223259
36310	-0.000916033	0.0223035
36349	-0.00099233	0.0222454
36388	-0.000896959	0.0222328
36427	-0.000877885	0.0220966
36466	-0.000839737	0.0222525
36505	-0.000896959	0.0220449
36544	-0.000801589	0.0218852
36583	-0.000820663	0.0219086
36622	-0.000782515	0.0218598
36661	-0.000935107	0.0218382
36700	-0.000916033	0.021778
36739	-0.000725292	0.021679
36778	-0.000839737	0.0217337
36817	-0.000782515	0.0216762
36856	-0.000820663	0.0216
36895	-0.000896959	0.0213978
36934	-0.000820663	0.0213381
36973	-0.000782515	0.0214743
37012	-0.000801589	0.0213601
37051	-0.000820663	0.0211988
37090	-0.000782515	0.0211089
37129	-0.000839737	0.0212172
37168	-0.000916033	0.0210615
37207	-0.000858811	0.0209133
37246	-0.000839737	0.0208681
37285	-0.000973256	0.0208334
37324	-0.000935107	0.0209284
37363	-0.000858811	0.0208143
37402	-0.000744366	0.0207161
37441	-0.000973256	0.0206515
37480	-0.000763441	0.0206361
37519	-0.000935107	0.020551
37558	-0.000782515	0.0204151
37597	-0.000954182	0.0204324
37636	-0.000782515	0.0204475
37675	-0.000763441	0.0204623
37714	-0.000782515	0.0203509
37753	-0.000858811	0.020232
37792	-0.000839737	0.0201287
37831	-0.000896959	0.0201872
37870	-0.000877885	0.0200231
37909	-0.000935107	0.0200291
37948	-0.000954182	0.0199578
37987	-0.000954182	0.0201766
38026	-0.000801589	0.0199488
38065	-0.000858811	0.0197948
38104	-0.000782515	0.0197844
38143	-0.000877885	0.0199233
38182	-0.000801589	0.0197347
38221	-0.000858811	0.0195511
38260	-0.000877885	0.0194771
38299	-0.000782515	0.0196083
38338	-0.000839737	0.0195748
38377	-0.000935107	0.0194305
38416	-0.000858811	0.019275
38455	-0.000935107	0.0192139
38494	-0.0010114	0.0192375
38533	-0.000916033	0.0192122
38572	-0.000954182	0.0192161
38611	-0.000839737	0.019072
38650	-0.000877885	0.0191043
38689	-0.000896959	0.0190657
38728	-0.000896959	0.0189177
38767	-0.000877885	0.0189268
38806	-0.000801589	0.0189451
38845	-0.000744366	0.0189317
38884	-0.000954182	0.0188505
38923	-0.000839737	0.0188309
38962	-0.000858811	0.0187211
39001	-0.0010114	0.0189147
39040	-0.000896959	0.018778
39079	-0.000877885	0.0186624
39118	-0.000763441	0.0186059
39157	-0.000858811	0.0187345
39196	-0.00099233	0.018715
39235	-0.000935107	0.0185131
39274	-0.000687144	0.018482
39313	-0.000744366	0.0183629
39352	-0.000896959	0.0184894
39391	-0.00099233	0.018296
39430	-0.000763441	0.0183024
39469	-0.00099233	0.0182574
39508	-0.000801589	0.0183851
39547	-0.000820663	0.0182409
39586	-0.000954182	0.0180912
39625	-2.00072	-35.1023
39664	-2.00078	-16.0454
39703	-2.00074	-10.9818
39742	-2.00084	-8.64898
39781	-2.00066	-7.32788
39820	-2.00063	-6.49978
39859	-2.00074	-5.93598
39898	-2.00063	-5.52864
39937	-2.00078	-5.23079
39976	-2.0007	-5.01017
40015	-2.00072	-4.84103
40054	-2.0007	-4.71622
40093	-2.00072	-4.60449
40132	-2.00064	-4.5165
40171	-2.00061	-4.45386
40210	-2.0007	-4.39647
40249	-2.00074	-4.34782
40288	-2.00076	-4.30868
40327	-2.00082	-4.28293
40366	-2.00068	-4.25824
40405	-2.0007	-4.23555
40444	-2.00068	-4.21493
40483	-2.00074	-4.20185
40522	-0.000782515	7.96164
40561	-0.000935107	2.46381
40600	-0.000858811	1.47349
40639	-0.000954182	1.07753
40678	-0.000916033	0.864818
40717	-0.000896959	0.730337
40756	-0.000877885	0.640078
40795	-0.000782515	0.5787
40834	-0.000801589	0.536395
40873	-0.000877885	0.504361
40912	-0.000744366	0.474156
40951	-0.000839737	0.450116
40990	-0.000782515	0.428432
41029	-0.000839737	0.408898
41068	-0.0010114	0.388694
41107	-0.000820663	0.369983
41146	-0.000973256	0.352808
41185	-0.000954182	0.337692
41224	-0.000916033	0.322053
41263	-0.000801589	0.306404
41302	-0.00099233	0.291559
41341	-0.000801589	0.278251
41380	-0.000820663	0.265546
41419	-0.00099233	0.253195
41458	-0.000935107	0.242503
41497	-0.00104955	0.233624
41536	-0.000877885	0.225692
41575	-0.00099233	0.217413
41614	-0.000877885	0.210176
41653	-0.000782515	0.203789
41692	-0.000877885	0.198695
41731	-0.000763441	0.193042
41770	-0.000839737	0.187689
41809	-0.000896959	0.182871
41848	-0.000954182	0.179053
41887	-0.000725292	0.175173
41926	-0.000839737	0.170775
41965	-0.000973256	0.16707
42004	-0.000877885	0.163551
42043	-0.000877885	0.160799
42082	-0.000763441	0.15747
42121	-0.000763441	0.153975
42160	-0.000820663	0.151144
42199	-0.000916033	0.148798
42238	-0.000858811	0.146008
42277	-0.000916033	0.143241
42316	-0.000877885	0.140599
42355	-0.000896959	0.138442
42394	-0.000916033	0.136361
42433	-0.000801589	0.133771
42472	-0.000801589	0.131453
42511	-0.000839737	0.12955
42550	-0.000782515	0.127859
42589	-0.000782515	0.125663
42628	-0.000839737	0.123466
42667	-0.000801589	0.121601
42706	-0.000916033	0.120115
42745	-0.000839737	0.118284
42784	-0.000820663	0.116428
42823	-0.000839737	0.114701
42862	-0.000935107	0.113399
42901	-0.000916033	0.111789
42940	-0.000916033	0.11015
42979	-0.000801589	0.108508
43018	-0.000916033	0.107013
43057	-0.000839737	0.10602
43096	-0.000973256	0.104233
43135	-0.000820663	0.102733
43174	-0.000973256	0.101419
43213	1.49934	32.4135
43252	1.49953	13.6411
43291	1.4994	9.64165
43330	1.49926	7.74429
43369	1.49934	6.59985
43408	1.49924	5.78173
43447	1.49947	5.12958
43486	1.49926	4.58323
43525	1.49938	4.15183
43564	1.49945	3.80491
43603	1.49932	3.52435
43642	1.49928	3.29282
43681	1.49941	3.10142
43720	1.4993	2.93947
43759	1.49943	2.81319
43798	1.49943	2.69511
43837	1.49928	2.59316
43876	1.49938	2.49861
43915	1.49922	2.42139
43954	1.4994	2.35464
43993	1.49926	2.29249
44032	1.49917	2.2308
44071	1.49934	2.16914
44110	1.49936	2.12394
44149	1.49947	2.0838
44188	1.49943	2.04941
44227	1.49928	2.01065
44266	1.4993	1.98308
44305	1.49941	1.9616
44344	1.4992	1.94064
44383	1.49915	1.91403
44422	1.49932	1.89013
44461	1.49926	1.87674
44500	1.4994	1.8625
44539	1.49949	1.84569
44578	1.49938	1.8191
44617	1.49936	1.80943
44656	1.49947	1.80421
44695	1.4994	1.7972
44734	1.49943	1.77575
44773	1.49926	1.76254
44812	1.4993	1.76254
44851	1.49934	1.76123
44890	1.4993	1.75041
44929	1.49938	1.72922
44968	1.49938	1.72743
45007	-0.000896959	-8.67154
45046	-0.000877885	-0.853033
45085	-0.000896959	-0.240417
45124	-0.000687144	-0.0714697
45163	-0.000782515	-0.0136737
45202	-0.000935107	0.00973266
45241	-0.000877885	0.0222051
45280	-0.000820663	0.0273497
45319	-0.000839737	0.0296568
45358	-0.0010114	0.0313994
45397	-0.000954182	0.0326091
45436	-0.000801589	0.0325219
45475	-0.000916033	0.0323712
45514	-0.000820663	0.0321824
45553	-0.00099233	0.032408
45592	-0.000916033	0.0323348
45631	-0.0010114	0.0317088
45670	-0.000820663	0.0313088
45709	-0.000916033	0.0312067
45748	-0.000858811	0.031366
45787	-0.000839737	0.0307865
45826	-0.000916033	0.0303843
45865	-0.000954182	0.0300537
45904	-0.000896959	0.0301116
45943	-0.000801589	0.0296736
45982	-0.000954182	0.0292804
46021	-0.000820663	0.0290306
46060	-0.000954182	0.0289183
46099	-0.000935107	0.0287503
46138	-0.000858811	0.0282676
46177	-0.000916033	0.0280403
46216	-0.000916033	0.0278706
46255	-0.000858811	0.0279489
46294	-0.00099233	0.0275155
46333	-0.000954182	0.0272921
46372	-0.000763441	0.026859
46411	-0.000820663	0.0270451
46450	-0.000916033	0.0267052
46489	-0.000916033	0.0263648
46528	-0.000954182	0.0262835
46567	-0.000858811	0.0262573
46606	-0.000858811	0.0261834
46645	-0.000782515	0.0257944
46684	-0.000973256	0.0255541
46723	-0.000782515	0.0253575
46762	-0.000744366	0.0253791
46801	-0.000916033	0.0250784
46840	-0.000935107	0.0248898
46879	-0.000877885	0.0246864
46918	-0.000801589	0.0246952
46957	-0.000858811	0.0244453
46996	-0.000954182	0.0242093
47035	-0.000896959	0.0241038
47074	-0.000820663	0.0241643
47113	-0.000782515	0.0240132
47152	-0.000706218	0.0236215
47191	-0.00099233	0.0235001
47230	-0.000896959	0.0234718
47269	-0.000935107	0.0235081
47308	-0.000839737	0.0231611
47347	-0.00099233	0.0229878
47386	-0.000858811	0.022815
47425	-0.000858811	0.022976
47464	-0.000916033	0.0226804
47503	-0.000935107	0.0224812
47542	-0.000858811	0.0222776
47581	-0.000858811	0.0225354
47620	-0.000839737	0.0222584
47659	-0.000896959	0.0220267
47698	-0.000858811	0.0218667
47737	-0.000858811	0.0218143
47776	-0.000763441	0.0218346
47815	-0.000744366	0.0216225
47854	-0.000877885	0.0214499
47893	-0.000858811	0.0213837
47932	-0.000916033	0.0215382
47971	-0.000877885	0.021212
48010	-0.000935107	0.0211914
48049	-0.000935107	0.0209988
48088	-0.000782515	0.0210221
48127	-0.000896959	0.0208745
48166	-0.00099233	0.0206945
48205	-0.000858811	0.020532
48244	-0.000763441	0.0206163
48283	-0.000858811	0.0205643
48322	-0.000896959	0.0203721
48361	-0.000801589	0.0201978
48400	-0.000877885	0.0202165
48439	-0.000916033	0.0201508
48478	-0.000858811	0.019954
48517	-0.000801589	0.0199441
48556	-0.000935107	0.0197771
48595	-0.000782515	0.0198553
48634	-0.000801589	0.0198223
48673	-0.000839737	0.0195553
48712	-0.000954182	0.0194628
48751	-0.000820663	0.0193801
48790	-0.000839737	0.0195043
48829	-0.000839737	0.0193652
48868	-0.000916033	0.0191307
48907	-0.000877885	0.0191695
48946	-0.000877885	0.0191521
48985	-0.000935107	0.0189348
49024	-0.000877885	0.0188611
49063	-0.000916033	0.0187204
49102	-0.0010114	0.0188715
49141	-0.000782515	0.0186928
49180	-0.000896959	0.0187886
49219	-0.000877885	0.0185044
49258	-0.000858811	0.0184946
49297	-0.000896959	0.0185526
49336	-0.000973256	0.0183919
49375	-0.000763441	0.0182991
49414	-0.000858811	0.0182227
49453	-0.000839737	0.0183242
49492	-0.000973256	0.0181003
49531	-0.000896959	0.0179608
49570	-0.000782515	0.0179789
49609	-0.000763441	0.0178573
49648	-0.000820663	0.017925
49687	-0.000954182	0.0177891
49726	-0.00099233	0.0177421
49765	-0.000916033	0.0177538
49804	-0.000916033	0.0177694
49843	-0.000801589	0.017559
49882	-0.000973256	0.0174752
49921	-0.000877885	0.0174922
49960	-0.000858811	0.0175819
49999	-0.000896959	0.0174225
50038	-0.00066807	0.0172785
50077	-0.0010114	0.0172425
50116	-0.000858811	0.0173497
50155	-0.000839737	0.017288
50194	-0.000839737	0.017262
50233	-0.000935107	0.0169781
50272	-0.000916033	0.0170543
50311	-0.000858811	0.0170619
50350	-0.000916033	0.0169006
50389	-0.000916033	0.016835
50428	-0.000877885	0.0168888
50467	-0.000858811	0.0169057
50506	-0.000858811	0.0167399
50545	-0.000877885	0.0167313
50584	-0.000858811	0.0165655
50623	-0.000973256	0.0166007
50662	-0.000839737	0.0166197
50701	-0.00099233	0.0164981
50740	-0.000763441	0.0163775
50779	-0.000916033	0.0164541
50818	-0.000935107	0.0163975
50857	-0.000820663	0.0163172
50896	-0.000896959	0.0161896
50935	-0.000896959	0.0161248
50974	-0.000973256	0.0162878
51013	-0.000839737	0.0161476
51052	-0.000839737	0.0159615
51091	-0.000763441	0.0160221
51130	-0.000896959	0.0160783
51169	-0.000973256	0.0159332
51208	-0.00099233	0.0158211
51247	-0.000896959	0.0158154
51286	-0.000820663	0.0157791
51325	-0.000916033	0.0158004
51364	-0.000916033	0.0156573
51403	-0.000858811	0.0157327
51442	-0.000839737	0.0156024
51481	-0.00104955	0.01576
51520	-0.000858811	0.0155448
51559	-0.000896959	0.015494
51598	-0.000858811	0.0154515
51637	-0.000839737	0.0154593
51676	-0.000916033	0.0153995
51715	-0.000916033	0.0152777
51754	-0.000877885	0.0152393
51793	-0.000916033	0.0153268
51832	-0.000935107	0.0152795
51871	-0.00099233	0.0151589
51910	-0.000801589	0.0150777
51949	-0.000973256	0.0150855
51988	-0.000954182	0.0151411
52027	-0.000877885	0.0150208
52066	-0.000896959	0.0149572
52105	-0.000896959	0.014928
52144	-0.000954182	0.0150112
52183	-0.000916033	0.0149234
52222	-0.00099233	0.014844
52261	-0.00099233	0.0148127
52300	-0.00104955	0.0148736
52339	-0.000820663	0.0149602
52378	-0.000877885	0.0147944
52417	-0.000839737	0.0147342
52456	-0.000858811	0.0146831
52495	-0.000896959	0.0147758
52534	-0.000839737	0.0146176
52573	-0.000954182	0.0146934
52612	-0.000782515	0.014612
52651	-0.000935107	0.0146943
52690	-0.0010114	0.0146615
52729	-0.000877885	0.0144843
52768	-0.000782515	0.0144808
52807	-0.000916033	0.0144442
52846	-0.000935107	0.0144894
52885	-0.000896959	0.0142676
52924	-0.000858811	0.014333
52963	-0.000916033	0.0143047
53002	-0.000877885	0.0142981
53041	-0.000954182	0.0142976
53080	-0.00103048	0.0142091
53119	-0.000839737	0.0141237
53158	-0.000954182	0.0142516
53197	-0.000858811	0.0141289
53236	-0.000820663	0.0140674
53275	-0.000954182	0.0140103
53314	-0.000935107	0.0140594
53353	-0.000896959	0.0140652
53392	-0.000954182	0.0139784
53431	-0.000820663	0.0139834
53470	-0.000839737	0.013973
53509	-0.000858811	0.0140556
53548	-0.000935107	0.0139378
53587	-0.00103048	0.0138577
53626	-0.00104955	0.0138896
53665	-0.000858811	0.0139888
53704	-0.00103048	0.0139108
53743	-0.000763441	0.0137452
53782	-0.00099233	0.0138359
53821	-0.000935107	0.0138522
53860	-0.000763441	0.0137586
53899	-0.00099233	0.0136763
53938	-0.000896959	0.0138641
53977	-0.000839737	0.0136932
54016	-2.00076	-39.818
54055	-2.00063	-13.6316
54094	-2.00082	-9.07811
54133	-2.00059	-7.18011
54172	-2.0007	-6.16491
54211	-2.00074	-5.53611
54250	-2.00074	-5.11511
54289	-2.00072	-4.83253
54328	-2.00063	-4.62226
54367	-2.00064	-4.46363
54406	-2.0007	-4.33783
54445	-2.00059	-4.24156
54484	-2.0007	-4.16797
54523	-2.0007	-4.11149
54562	-2.0007	-4.06067
54601	-2.00063	-4.02566
54640	-2.00066	-3.99719
54679	-2.00055	-3.97539
54718	-2.00061	-3.95285
54757	-2.00085	-3.93377
54796	-2.00074	-3.92197
54835	-2.00076	-3.91795
54874	-2.00074	-3.91102
54913	-0.000896959	12.8953
54952	-0.000973256	2.81997
54991	-0.000744366	1.44454
55030	-0.000801589	0.975472
55069	-0.000839737	0.745056
55108	-0.000725292	0.611579
55147	-0.000782515	0.526185
55186	-0.000839737	0.463932
55225	-0.000801589	0.416837
55264	-0.000801589	0.378341
55303	-0.000954182	0.345985
55342	-0.000896959	0.319302
55381	-0.000763441	0.296077
55420	-0.000935107	0.275601
55459	-0.000935107	0.257926
55498	-0.00106863	0.243196
55537	-0.000877885	0.230155
55576	-0.000782515	0.21781
55615	-0.000858811	0.207071
55654	-0.000935107	0.197232
55693	-0.000782515	0.189365
55732	-0.000820663	0.181388
55771	-0.000801589	0.174104
55810	-0.000820663	0.167597
55849	-0.000820663	0.16223
55888	-0.000916033	0.157091
55927	-0.000839737	0.151739
55966	-0.000877885	0.147076
56005	-0.000935107	0.142956
56044	-0.000973256	0.139251
56083	-0.000935107	0.135311
56122	-0.000916033	0.131689
56161	-0.000954182	0.128386
56200	-0.000896959	0.125602
56239	-0.000877885	0.122562
56278	-0.000820663	0.1196
56317	-0.000916033	0.116941
56356	-0.000763441	0.114751
56395	-0.000763441	0.112274
56434	-0.000801589	0.109811
56473	-0.000782515	0.107655
56512	-0.000916033	0.105769
56551	-0.000820663	0.10391
56590	-0.000858811	0.101532
56629	-0.000858811	0.0997313
56668	-0.000973256	0.0979347
56707	-0.0010114	0.0965433
56746	-0.0010114	0.094637
56785	-0.000916033	0.0929479
56824	-0.000896959	0.0914097
56863	-0.000839737	0.0900529
56902	-0.00106863	0.088707
56941	-0.000839737	0.0871208
56980	-0.000782515	0.0857834
57019	-0.000839737	0.0846577
57058	-0.000782515	0.083562
57097	-0.000935107	0.082114
57136	-0.000801589	0.0808585
57175	-0.000916033	0.0797721
57214	-0.000954182	0.0789172
57253	-0.000935107	0.0776628
57292	-0.000820663	0.0764253
57331	-0.000916033	0.0753062
57370	-0.000954182	0.0746373
57409	-0.000877885	0.0734996
57448	-0.000916033	0.0723959
57487	-0.000935107	0.0715027
57526	-0.000858811	0.0707826
57565	-0.000820663	0.0698974
57600	-0.0010114	0.0688381