File: Data_07_Experiment/CA_001_C01.txt
time/s	Ewe/V	<I>/mA
1	1.49918	137.048
40	1.49935	6.98862
79	1.49923	5.54931
118	1.49933	5.21777
157	1.49902	5.07215
196	1.49923	4.96779
235	1.49921	4.85813
274	1.49937	4.74385
313	1.49921	4.679
352	1.49929	4.61008
391	1.49944	4.58479
430	1.49931	4.56666
469	1.49927	4.53178
508	1.49937	4.52076
547	1.49929	4.49724
586	1.49889	4.48126
625	1.49937	4.45536
664	1.49937	4.46881
703	1.49916	4.49037
742	1.49935	4.49172
781	1.49931	4.4934
820	1.49921	4.47924
859	1.49919	4.49487
898	1.49948	4.47681
937	1.49958	4.51274
976	1.49908	4.53049
1015	1.49935	4.48524
1054	1.4994	4.48852
1093	1.49916	4.50631
1132	1.49925	4.43364
1171	1.49961	4.42687
1210	1.49923	4.42347
1249	1.49944	4.39622
1288	1.49927	4.37755
1327	1.49931	4.3893
1366	1.49919	4.37449
1405	1.49944	4.36239
1444	1.49946	4.30484
1483	1.49893	4.26631
1522	1.49939	4.24304
1561	1.49929	4.22244
1600	1.49925	4.30226
1639	1.49944	4.2418
1678	1.49937	4.22805
1717	1.49939	4.15997
1756	1.49923	4.14396
1795	1.49958	4.15166
1833.95	-0.00119323	-0.65259
1872.95	-0.000754523	0.509339
1911.95	-0.000678227	0.699365
1950.95	-0.000983412	0.657923
1989.95	-0.00104063	0.577816
2028.95	-0.00105971	0.502275
2067.95	-0.00113601	0.447061
2106.95	-0.000945264	0.40937
2145.95	-0.00105971	0.384942
2184.95	-0.00111693	0.363519
2223.95	-0.000945264	0.342155
2262.95	-0.00111693	0.325339
2301.95	-0.00109786	0.311063
2340.95	-0.00105971	0.300691
2379.95	-0.00111693	0.288125
2418.95	-0.000907116	0.278869
2457.95	-0.00107878	0.275647
2496.95	-0.00115508	0.269388
2535.95	-0.00105971	0.259663
2574.95	-0.00102156	0.251149
2613.95	-0.00107878	0.246368
2652.95	-0.00115508	0.244823
2691.95	-0.000964338	0.236279
2730.95	-0.00092619	0.227847
2769.95	-0.00119323	0.221676
2808.95	-0.0012123	0.215183
2847.95	-0.00115508	0.211226
2886.95	-0.00092619	0.20459
2925.95	-0.000983412	0.199495
2964.95	-0.000868968	0.200112
3003.95	-0.00105971	0.197379
3042.95	-0.00134582	0.191097
3081.95	-0.00113601	0.188399
3120.95	-0.00113601	0.185474
3159.95	-0.000907116	0.185016
3198.95	-0.00119323	0.180598
3237.95	-0.00115508	0.177965
3276.95	-0.00111693	0.176524
3315.95	-0.000792671	0.171598
3354.95	-0.000945264	0.173357
3393.95	-0.000983412	0.170601
3432.95	-0.000849894	0.165337
3471.95	-0.000964338	0.162615
3510.95	-0.000697301	0.160389
3549.95	-0.000773597	0.154828
3588.95	-0.00107878	0.155002
3627.95	-0.00102156	0.156329
3666.95	-0.000983412	0.15245
3705.95	-0.000945264	0.148205
3744.95	-0.000888042	0.145093
3783.95	-0.00102156	0.135765
3822.95	-0.00100249	0.129813
3861.95	-0.00107878	0.132148
3900.95	-0.000945264	0.133703
3939.95	-0.00104063	0.126556
3978.95	-0.00109786	0.122987
4017.95	-0.00107878	0.121079
4056.95	-0.00109786	0.121458
4095.95	-0.00102156	0.118757
4134.95	-0.00105971	0.120506
4173.95	-0.00109786	0.118045
4212.95	-0.00102156	0.114779
4251.95	-0.000735449	0.109926
4290.95	-0.00111693	0.10634
4329.95	-0.0012886	0.103882
4368.95	-0.00104063	0.105427
4407.95	-0.00107878	0.0989394
4446.95	-0.00113601	0.0942352
4485.95	-0.00092619	0.0982328
4524.95	-0.000907116	0.0948586
4563.95	-0.000849894	0.0878109
4602.95	-0.000945264	0.0822606
4641.95	-0.000868968	0.0776264
4680.95	-0.000849894	0.0756957
4719.95	-0.00104063	0.073655
4758.95	-0.00109786	0.0708128
4797.95	-0.00104063	0.0688136
4836.95	-0.000907116	0.0674601
4875.95	-0.00119323	0.0666913
4914.95	-0.000964338	0.064698
4953.95	-0.000945264	0.0634929
4992.95	-0.00102156	0.0622024
5031.95	-0.00107878	0.0621108
5070.95	-0.00111693	0.0608859
5109.95	-0.00111693	0.0597962
5148.95	-0.000907116	0.0588486
5187.95	-0.00105971	0.0585712
5226.95	-0.00102156	0.0573265
5265.95	-0.00117415	0.0561575
5304.95	-0.000621005	0.0549985
5343.95	-0.000945264	0.054636
5382.95	-0.00109786	0.0540229
5421.95	-0.00107878	0.0528174
5460.95	-0.00115508	0.052061
5499.95	-0.00111693	0.0526252
5538.95	-0.00102156	0.0517136
5577.95	-0.00117415	0.0506585
5616.95	-0.00102156	0.0500537
5655.95	-0.00117415	0.0491074
5694.95	-0.00109786	0.0490462
5733.95	-0.00105971	0.0485335
5772.95	-0.000964338	0.0478598
5811.95	-0.00102156	0.047589
5850.95	-0.00104063	0.0475302
5889.95	-0.00134582	0.047162
5928.95	-0.000945264	0.0462175
5967.95	-0.00126952	0.0458852
6006.95	-0.00104063	0.0455007
6045.95	-0.000811746	0.0455719
6084.95	-0.00105971	0.0446792
6123.95	-0.00092619	0.0441939
6162.95	-0.00123138	0.0438764
6201.95	-0.00092619	0.0441421
6240.95	-0.00123138	0.0435225
6279.95	-0.00111693	0.042889
6318.95	-0.000964338	0.042592
6357.95	-0.000964338	0.0425788
6396.95	-0.000964338	0.042405
6435.95	-0.00100249	0.0419432
6474.95	-0.00100249	0.0419352
6513.95	-0.00117415	0.0414115
6552.95	-0.000964338	0.0417282
6591.95	-0.00092619	0.0410069
6630.95	-0.000888042	0.0408503
6669.95	-0.000792671	0.0405472
6708.95	-0.000945264	0.0409868
6747.95	-0.00100249	0.0404495
6786.95	-0.00102156	0.0403475
6825.95	-0.0012123	0.0399258
6864.95	-0.000640079	0.0403264
6903.95	-0.00132675	0.0401307
6942.95	-0.00119323	0.0397877
6981.95	-0.00111693	0.0396395
7020.95	-0.00105971	0.0393211
7059.95	-0.00105971	0.0396392
7098.95	-0.00092619	0.0390705
7137.95	-0.00111693	0.0387646
7176.95	-0.00119323	0.0384376
7215.95	-0.00083082	0.0389153
7254.95	-0.00104063	0.0383323
7293.95	-0.000868968	0.0382167
7332.95	-0.00147934	0.0378969
7371.95	-0.000888042	0.0380436
7410.95	-0.00100249	0.0378723
7449.95	-0.00100249	0.0373994
7488.95	-0.00105971	0.0370787
7527.95	-0.00111693	0.0369329
7566.95	-0.00102156	0.0375697
7605.95	-0.000945264	0.0368657
7644.95	-0.00138397	0.0367395
7683.95	-0.000945264	0.0363143
7722.95	-0.0012886	0.0368083
7761.95	-0.00125045	0.0363192
7800.95	-0.000983412	0.0359579
7839.95	-0.000945264	0.0356923
7878.95	-0.00109786	0.0359998
7917.95	-0.000964338	0.0357132
7956.95	-0.00113601	0.0353003
7995.95	-0.00117415	0.0352864
8034.95	-0.00111693	0.0352896
8073.95	-0.00111693	0.0354198
8112.95	-0.000868968	0.0347302
8151.95	-0.00104063	0.0346889
8190.95	-0.00102156	0.0345399
8229.95	-0.000983412	0.0348197
8268.95	-0.00113601	0.0342605
8307.95	-0.00109786	0.0341458
8346.95	-0.00119323	0.0340488
8385.95	-0.00115508	0.0342451
8424.95	-0.00109786	0.0338498
8463.95	-0.000811746	0.0335374
8502.95	-0.00092619	0.033556
8541.95	-0.00126952	0.0336112
8580.95	-0.000964338	0.0334858
8619.95	-0.00092619	0.033061
8658.95	-0.00100249	0.0329515
8697.95	-0.00115508	0.0328037
8736.95	-0.00102156	0.0331639
8775.95	-0.000849894	0.0328519
8814.95	-0.000945264	0.0325956
8853.95	-0.000907116	0.0324663
8892.95	-0.00119323	0.0324834
8931.95	-0.000849894	0.0323445
8970.95	-0.00104063	0.0320429
9009.95	-0.000811746	0.0318483
9048.95	-0.00107878	0.0318952
9087.95	-0.000888042	0.0319118
9126.95	-0.000964338	0.031569
9165.95	-0.00102156	0.0313905
9204.95	-0.00119323	0.0313999
9243.95	-0.00132675	0.0316299
9282.95	-0.00117415	0.0311352
9321.95	-0.00119323	0.030978
9360.95	-0.000964338	0.0309165
9399.95	-0.00130767	0.0311085
9438.95	-0.00102156	0.030845
9477.95	-0.000945264	0.030593
9516.95	-0.000945264	0.0303923
9555.95	-0.000983412	0.0303665
9594.95	-0.00104063	0.0303105
9633.95	-0.00105971	0.0299073
9672.95	-0.00115508	0.0299028
9711.95	-0.00132675	0.0298138
9750.95	-0.000983412	0.0300448
9789.95	-0.00105971	0.029638
9828.95	-0.000888042	0.0294882
9867.95	-0.000907116	0.0293473
9906.95	-0.00111693	0.0294075
9945.95	-0.000964338	0.0291003
9984.95	-0.00109786	0.0289881
10024	-0.00092619	0.0286672
10063	-0.00105971	0.0288314
10102	-0.000983412	0.0287963
10141	-0.000888042	0.0284903
10180	-0.000945264	0.0285266
10219	-0.00105971	0.0285131
10258	-0.000945264	0.0284661
10297	-0.00111693	0.0281323
10336	-0.000907116	0.0281196
10375	-0.00132675	0.0279571
10414	-0.000888042	0.0281335
10453	-0.000983412	0.0278397
10492	-0.00123138	0.0277148
10531	-0.00104063	0.0275964
10570	-0.000983412	0.0275694
10609	-0.00111693	0.0275656
10648	-0.00102156	0.0274424
10687	-0.000983412	0.0271928
10726	-0.00104063	0.0271454
10765	-0.00102156	0.0273296
10804	-2.00071	-186.73
10843	-2.00067	-29.5591
10882	-2.00077	-15.7329
10921	-2.00085	-11.6024
10960	-2.00107	-9.80691
10999	-2.00113	-8.80763
11038	-2.00081	-8.19657
11077	-2.00088	-7.79692
11116	-2.00104	-7.52763
11155	-2.00111	-7.32218
11194	-2.00077	-7.17732
11233	-2.00086	-7.07287
11272	-2.00096	-7.01968
11311	-2.00075	-6.94891
11350	-2.00102	-6.90962
11389	-2.00106	-6.88457
11428	-2.00102	-6.89144
11467	-2.0009	-6.87846
11506	-2.00079	-6.87732
11545	-2.00069	-6.8791
11584	-2.00079	-6.89295
11623	-2.00077	-6.91544
11662	-2.00088	-6.92482
11701	-0.00115508	147.106
11740	-0.00104063	3.95684
11779	-0.00083082	2.6737
11818	-0.000849894	2.22001
11857	-0.000964338	2.05263
11896	-0.000964338	1.95386
11935	-0.00083082	1.90022
11974	-0.000945264	1.82146
12013	-0.000697301	1.77251
12052	-0.00105971	1.72473
12091	-0.00117415	1.68237
12130	-0.000868968	1.62632
12169	-0.00092619	1.56921
12208	-0.00083082	1.5291
12247	-0.00092619	1.4837
12286	-0.00117415	1.44482
12325	-0.00115508	1.38604
12364	-0.000964338	1.34502
12403	-0.00115508	1.30357
12442	-0.00107878	1.26563
12481	-0.00104063	1.21376
12520	-0.000945264	1.17157
12559	-0.000849894	1.13216
12598	-0.00104063	1.0985
12637	-0.000964338	1.06087
12676	-0.000983412	1.0222
12715	-0.000811746	0.991617
12754	-0.00102156	0.962583
12793	-0.00105971	0.937767
12832	-0.00126952	0.907618
12871	-0.00115508	0.884216
12910	-0.00119323	0.861953
12949	-0.00092619	0.84363
12988	-0.00113601	0.819139
13027	-0.00105971	0.798329
13066	-0.00107878	0.779666
13105	-0.000983412	0.762743
13144	-0.00100249	0.743599
13183	-0.00100249	0.723877
13222	-0.00117415	0.706987
13261	-0.00107878	0.690706
13300	-0.00104063	0.674623
13339	-0.00126952	0.654939
13378	-0.000964338	0.638697
13417	-0.000945264	0.621845
13456	-0.00083082	0.606659
13495	-0.00107878	0.588173
13534	-0.00102156	0.570683
13573	-0.00111693	0.553007
13612	-0.00130767	0.535846
13651	-0.000983412	0.516447
13690	-0.000907116	0.496766
13729	-0.00107878	0.475191
13768	-0.000697301	0.455182
13807	-0.00113601	0.436085
13846	-0.00107878	0.415218
13885	-0.00107878	0.397427
13924	-0.00092619	0.382965
13963	-0.00100249	0.373523
14002	-0.000945264	0.363129
14041	-0.00105971	0.353792
14080	-0.00130767	0.34486
14119	-0.00115508	0.336516
14158	-0.00105971	0.327637
14197	-0.000964338	0.318284
14236	-0.000983412	0.310089
14275	-0.000945264	0.301938
14314	-0.00107878	0.294609
14353	-0.00130767	0.28607
14392	-0.0012123	0.278996
14431	1.49895	39.8899
14470	1.4994	26.1578
14509	1.49912	20.589
14548	1.49914	17.1838
14587	1.49929	14.8222
14626	1.49929	13.0195
14665	1.4994	11.6697
14704	1.49931	10.5839
14743	1.49937	9.68878
14782	1.49923	8.96462
14821	1.49921	8.35703
14860	1.49927	7.83254
14899	1.49906	7.36143
14938	1.49961	6.96013
14977	1.49914	6.59884
15016	1.49944	6.26281
15055	1.49935	5.96893
15094	1.49912	5.70998
15133	1.49921	5.46555
15172	1.49914	5.24848
15211	1.49929	5.04761
15250	1.49967	4.86454
15289	1.49931	4.67178
15328	1.49935	4.50855
15367	1.49927	4.36711
15406	1.4991	4.23081
15445	1.49942	4.10443
15484	1.49919	3.98368
15523	1.49935	3.87305
15562	1.4991	3.76893
15601	1.49935	3.66917
15640	1.49937	3.57602
15679	1.49927	3.48473
15718	1.49937	3.39951
15757	1.49939	3.319
15796	1.49918	3.24547
15835	1.49925	3.16739
15874	1.49914	3.10073
15913	1.49929	3.03934
15952	1.49923	2.97703
15991	1.4994	2.91073
16030	1.49916	2.8496
16069	1.49931	2.79295
16108	1.49925	2.73517
16147	1.49927	2.67779
16186	1.49925	2.61787
16225	-0.000716375	-1.3357
16264	-0.000983412	-0.144521
16303	-0.000964338	0.0657905
16342	-0.00119323	0.0936009
16381	-0.00136489	0.0899409
16420	-0.00104063	0.084031
16459	-0.00102156	0.0771691
16498	-0.000964338	0.074491
16537	-0.00107878	0.0672175
16576	-0.00132675	0.064964
16615	-0.00104063	0.061576
16654	-0.00092619	0.0627421
16693	-0.00104063	0.0593488
16732	-0.00105971	0.0579529
16771	-0.0012123	0.0572477
16810	-0.00105971	0.0571864
16849	-0.00109786	0.0565081
16888	-0.00102156	0.0541565
16927	-0.000945264	0.0538422
16966	-0.00109786	0.0533008
17005	-0.00107878	0.0546036
17044	-0.000964338	0.0514525
17083	-0.00126952	0.0511188
17122	-0.00111693	0.0504936
17161	-0.000945264	0.0524142
17200	-0.00111693	0.0497507
17239	-0.00109786	0.049082
17278	-0.00117415	0.0487553
17317	-0.000811746	0.0494537
17356	-0.000964338	0.0489296
17395	-0.00107878	0.0475082
17434	-0.000811746	0.0470839
17473	-0.00119323	0.0467719
17512	-0.000811746	0.0478669
17551	-0.000849894	0.0460991
17590	-0.00105971	0.0463428
17629	-0.000945264	0.0457927
17668	-0.00111693	0.0471223
17707	-0.00111693	0.044661
17746	-0.00100249	0.0446996
17785	-0.00117415	0.0442674
17824	-0.000907116	0.0448779
17863	-0.000964338	0.0439805
17902	-0.00111693	0.044101
17941	-0.00092619	0.0445349
17980	-0.000868968	0.0441092
18019	-0.000983412	0.0432971
18058	-0.00111693	0.0420972
18097	-0.00105971	0.0417516
18136	-0.00102156	0.0407698
18175	-0.00104063	0.0411097
18214	-0.00105971	0.039324
18253	-0.00104063	0.0397511
18292	-0.000735449	0.0389791
18331	-0.00105971	0.0407574
18370	-0.00117415	0.0401792
18409	-0.00113601	0.0392835
18448	-0.000907116	0.0383765
18487	-0.00119323	0.0388835
18526	-0.00107878	0.0401057
18565	-0.00142212	0.0385044
18604	-0.000888042	0.0378163
18643	-0.00100249	0.0377536
18682	-0.00119323	0.0393038
18721	-0.00105971	0.0379237
18760	-0.00092619	0.0374679
18799	-0.000945264	0.0373029
18838	-0.000849894	0.0385097
18877	-0.00105971	0.0374652
18916	-0.000983412	0.0369364
18955	-0.00105971	0.0370207
18994	-0.00104063	0.0368133
19033	-0.00102156	0.0370577
19072	-0.00100249	0.0359855
19111	-0.00102156	0.0366513
19150	-0.00113601	0.0361541
19189	-0.00102156	0.0373821
19228	-0.000945264	0.0357093
19267	-0.00092619	0.0354335
19306	-0.00125045	0.0351386
19345	-0.00102156	0.0360701
19384	-0.000849894	0.0351382
19423	-0.00100249	0.0350842
19462	-0.000945264	0.0348229
19501	-0.000888042	0.0348158
19540	-0.0012123	0.0349507
19579	-0.00104063	0.0342589
19618	-0.00111693	0.0346056
19657	-0.00115508	0.0341862
19696	-0.000945264	0.0348624
19735	-0.00115508	0.0333673
19774	-0.00092619	0.0334812
19813	-0.00126952	0.0337697
19852	-0.000773597	0.0349521
19891	-0.00104063	0.0337509
19930	-0.00111693	0.0330261
19969	-0.00102156	0.0331058
20008	-0.000716375	0.0331713
20047	-0.00123138	0.0332469
20086	-0.00107878	0.032719
20125	-0.00113601	0.0331505
20164	-0.000945264	0.0328199
20203	-0.00117415	0.0334415
20242	-0.00107878	0.0322226
20281	-0.00123138	0.0324369
20320	-0.00105971	0.0324557
20359	-0.00100249	0.0327537
20398	-0.00113601	0.0318854
20437	-0.000964338	0.0315397
20476	-0.000983412	0.0313648
20515	-0.000983412	0.0314412
20554	-0.00107878	0.031514
20593	-0.000907116	0.0315397
20632	-0.00092619	0.0321432
20671	-0.00092619	0.0315543
20710	-0.00107878	0.0319325
20749	-0.000907116	0.0307931
20788	-0.00104063	0.031223
20827	-0.00111693	0.0309933
20866	-0.000773597	0.0314191
20905	-0.0012123	0.0305734
20944	-0.000983412	0.0304752
20983	-0.000964338	0.0304411
21022	-0.0012123	0.0305545
21061	-0.00107878	0.0306994
21100	-0.00107878	0.0303001
21139	-0.00100249	0.0303642
21178	-0.00102156	0.0299994
21217	-0.00105971	0.03048
21256	-0.00105971	0.0296735
21295	-0.000811746	0.0300227
21334	-0.00111693	0.0295419
21373	-0.00105971	0.0303064
21412	-0.00144119	0.0296308
21451	-0.00092619	0.0293995
21490	-0.00104063	0.0292595
21529	-0.00092619	0.0297204
21568	-0.000868968	0.0299405
21607	-0.00107878	0.0292549
21646	-0.00111693	0.0291446
21685	-0.00109786	0.0289631
21724	-0.00107878	0.0293437
21763	-0.000888042	0.0284208
21802	-0.00100249	0.0286739
21841	-0.00102156	0.0286264
21880	-0.000849894	0.0293246
21919	-0.000849894	0.0283893
21958	-0.00111693	0.0284541
21997	-0.00134582	0.0285159
22036	-0.000716375	0.0289463
22075	-0.000907116	0.0289139
22114	-0.000849894	0.0283296
22153	-0.00117415	0.0282837
22192	-0.000945264	0.0283796
22231	-0.000983412	0.0291114
22270	-0.00083082	0.0282194
22309	-0.00111693	0.0282896
22348	-0.000868968	0.0281676
22387	-0.000945264	0.028687
22426	-0.00102156	0.027836
22465	-0.00105971	0.0281376
22504	-0.00117415	0.0281103
22543	-0.00107878	0.0284698
22582	-0.00109786	0.0284026
22621	-0.00109786	0.0279737
22660	-0.000945264	0.0279974
22699	-0.00115508	0.0279249
22738	-0.000868968	0.0282102
22777	-0.00105971	0.027604
22816	-0.00107878	0.0277749
22855	-0.00119323	0.0274762
22894	-0.00092619	0.0281508
22933	-0.000964338	0.027475
22972	-0.000964338	0.0275475
23011	-0.000983412	0.0275275
23050	-0.00113601	0.0277824
23089	-0.000868968	0.0272545
23128	-0.0012123	0.0269409
23167	-0.0012123	0.0270817
23206	-0.00117415	0.0270675
23245	-0.00107878	0.0274768
23284	-0.00107878	0.0270399
23323	-0.000983412	0.027258
23362	-0.0012886	0.0271233
23401	-0.000754523	0.0275657
23440	-0.00115508	0.0267528
23479	-0.000964338	0.027031
23518	-0.000907116	0.0269686
23557	-0.00102156	0.0273189
23596	-0.000964338	0.0267835
23635	-0.000945264	0.0265044
23674	-0.000849894	0.0265095
23713	-0.00117415	0.0265002
23752	-0.00100249	0.0266825
23791	-0.000811746	0.0262532
23830	-0.000964338	0.0266704
23869	-0.00107878	0.0265649
23908	-0.00123138	0.027142
23947	-0.00109786	0.0262716
23986	-0.000754523	0.026163
24025	-0.000811746	0.0261535
24064	-0.00117415	0.0268701
24103	-0.000888042	0.0264515
24142	-0.00100249	0.0263423
24181	-0.00104063	0.0262436
24220	-0.00104063	0.0263433
24259	-0.00125045	0.0264108
24298	-0.00107878	0.0260417
24337	-0.000792671	0.0262776
24376	-0.00100249	0.026321
24415	-0.000888042	0.0265582
24454	-0.000907116	0.0258461
24493	-0.00107878	0.026073
24532	-0.00100249	0.0262803
24571	-0.000907116	0.026632
24610	-0.00109786	0.0260866
24649	-0.00104063	0.0259131
24688	-0.000849894	0.0260402
24727	-0.00115508	0.0260991
24766	-0.00113601	0.0260097
24805	-0.000811746	0.0257922
24844	-0.00100249	0.0258925
24883	-0.0012123	0.0257378
24922	-0.00104063	0.0261819
24961	-0.00113601	0.0254801
25000	-0.00102156	0.0256015
25039	-0.00100249	0.0258015
25078	-0.000792671	0.0261691
25117	-0.000907116	0.025622
25156	-0.00126952	0.0255368
25195	-0.00092619	0.0256212
25234	-2.00102	-40.228
25273	-2.00109	-23.6427
25312	-2.00111	-16.3325
25351	-2.00085	-12.2405
25390	-2.00096	-9.80189
25429	-2.00077	-8.25891
25468	-2.00083	-7.19662
25507	-2.00092	-6.46072
25546	-2.00056	-5.9293
25585	-2.00077	-5.55252
25624	-2.0009	-5.2641
25663	-2.00079	-5.03472
25702	-2.00083	-4.86328
25741	-2.00098	-4.75273
25780	-2.00069	-4.66245
25819	-2.00077	-4.57793
25858	-2.001	-4.51792
25897	-2.00077	-4.47042
25936	-2.00071	-4.45907
25975	-2.00121	-4.43023
26014	-2.00077	-4.40754
26053	-2.00085	-4.39825
26092	-2.00069	-4.40254
26131	-0.00105971	3.61503
26170	-0.000888042	1.96045
26209	-0.0012123	1.50435
26248	-0.000945264	1.29392
26287	-0.000983412	1.17787
26326	-0.000964338	1.07867
26365	-0.00107878	1.01851
26404	-0.00117415	0.968194
26443	-0.00117415	0.935394
26482	-0.000964338	0.886359
26521	-0.00113601	0.852794
26560	-0.000983412	0.820413
26599	-0.00104063	0.798225
26638	-0.00107878	0.764097
26677	-0.000907116	0.735555
26716	-0.00105971	0.713049
26755	-0.000773597	0.69176
26794	-0.00117415	0.672571
26833	-0.000735449	0.646139
26872	-0.00105971	0.627527
26911	-0.00105971	0.610451
26950	-0.0012886	0.600136
26989	-0.00104063	0.577799
27028	-0.00104063	0.563745
27067	-0.00107878	0.550939
27106	-0.00130767	0.542479
27145	-0.0012123	0.52791
27184	-0.000964338	0.514341
27223	-0.00105971	0.504383
27262	-0.00102156	0.496067
27301	-0.00104063	0.488847
27340	-0.000868968	0.473603
27379	-0.00107878	0.465903
27418	-0.00104063	0.458799
27457	-0.000983412	0.455165
27496	-0.00140304	0.442613
27535	-0.000945264	0.435626
27574	-0.00105971	0.429178
27613	-0.000868968	0.426304
27652	-0.00126952	0.41683
27691	-0.000868968	0.408869
27730	-0.00100249	0.40351
27769	-0.00102156	0.398546
27808	-0.000983412	0.394632
27847	-0.000983412	0.386202
27886	-0.00111693	0.3815
27925	-0.000888042	0.376037
27964	-0.000983412	0.374372
28003	-0.00111693	0.365891
28042	-0.00102156	0.360601
28081	-0.00109786	0.355918
28120	-0.00092619	0.354145
28159	-0.000964338	0.346935
28198	-0.00132675	0.340874
28237	-0.000964338	0.336785
28276	-0.00115508	0.333907
28315	-0.0012123	0.329732
28354	-0.00140304	0.322912
28393	-0.000792671	0.318831
28432	-0.000735449	0.314358
28471	-0.00111693	0.312844
28510	-0.000888042	0.305583
28549	-0.000640079	0.301881
28588	-0.00109786	0.297628
28627	-0.00105971	0.296049
28666	-0.00117415	0.289754
28705	-0.000964338	0.285032
28744	-0.00117415	0.281203
28783	-0.00104063	0.27834
28822	1.49942	33.3333
28861	1.49927	17.6452
28900	1.49929	13.1407
28939	1.49963	10.9259
28978	1.49902	9.5665
29017	1.49933	8.64649
29056	1.49937	7.95785
29095	1.49933	7.43147
29134	1.49931	7.01047
29173	1.49923	6.67558
29212	1.49931	6.35251
29251	1.49935	6.08673
29290	1.49927	5.85503
29329	1.49927	5.6537
29368	1.49929	5.48168
29407	1.4996	5.31045
29446	1.49931	5.15679
29485	1.49933	5.01118
29524	1.49933	4.89444
29563	1.49921	4.75063
29602	1.49925	4.63606
29641	1.49889	4.52309
29680	1.49904	4.43298
29719	1.49942	4.34072
29758	1.49914	4.24807
29797	1.49927	4.15823
29836	1.4996	4.06502
29875	1.49902	3.9922
29914	1.49933	3.90541
29953	1.49931	3.8214
29992	1.49918	3.73304
30031	1.49927	3.66399
30070	1.4991	3.58889
30109	1.49929	3.51387
30148	1.49946	3.43622
30187	1.49944	3.36451
30226	1.49919	3.29581
30265	1.49918	3.21789
30304	1.49931	3.14142
30343	1.49921	3.05893
30382	1.49931	2.99116
30421	1.49925	2.91016
30460	1.49927	2.83071
30499	1.49918	2.7391
30538	1.49897	2.66544
30577	1.49931	2.59069
30616	-0.00104063	-2.41929
30655	-0.00117415	-0.268777
30694	-0.00104063	0.0198444
30733	-0.00107878	0.0662194
30772	-0.00125045	0.0713389
30811	-0.00111693	0.0756757
30850	-0.00105971	0.0701369
30889	-0.000792671	0.0684001
30928	-0.00105971	0.0681915
30967	-0.00117415	0.0687406
31006	-0.00107878	0.0696732
31045	-0.000888042	0.067314
31084	-0.00105971	0.0672099
31123	-0.00092619	0.0660839
31162	-0.00109786	0.0688198
31201	-0.00102156	0.0652521
31240	-0.00102156	0.066101
31279	-0.0012886	0.0662621
31318	-0.000964338	0.0679349
31357	-0.000983412	0.0650112
31396	-0.000888042	0.0637321
31435	-0.00104063	0.0643431
31474	-0.000945264	0.0644004
31513	-0.00107878	0.064516
31552	-0.00117415	0.0623046
31591	-0.000907116	0.0620765
31630	-0.00107878	0.0611528
31669	-0.00107878	0.0630798
31708	-0.000811746	0.0600428
31747	-0.00136489	0.0601599
31786	-0.00100249	0.0596924
31825	-0.00104063	0.0611843
31864	-0.000964338	0.0587038
31903	-0.000945264	0.0579096
31942	-0.00111693	0.058014
31981	-0.00109786	0.0581402
32020	-0.000868968	0.0580596
32059	-0.00107878	0.056065
32098	-0.000792671	0.0559588
32137	-0.00111693	0.0554218
32176	-0.00104063	0.0570548
32215	-0.00111693	0.0541935
32254	-0.00105971	0.0540801
32293	-0.00105971	0.0536262
32332	-0.000792671	0.055082
32371	-0.00100249	0.0526701
32410	-0.00125045	0.0520094
32449	-0.00107878	0.0518226
32488	-0.00105971	0.0524784
32527	-0.0012886	0.0521312
32566	-0.00092619	0.0508106
32605	-0.00107878	0.0507436
32644	-0.00092619	0.0504787
32683	-0.00115508	0.0515966
32722	-0.00109786	0.0490931
32761	-0.00130767	0.0494729
32800	-0.0012886	0.0486255
32839	-0.00111693	0.0498803
32878	-0.00109786	0.0481096
32917	-0.0012123	0.0479043
32956	-0.00111693	0.0478308
32995	-0.000888042	0.0484738
33034	-0.00105971	0.0479413
33073	-0.000945264	0.0467454
33112	-0.000907116	0.0465926
33151	-0.00102156	0.0460186
33190	-0.00105971	0.0469598
33229	-0.000945264	0.0446914
33268	-0.00102156	0.0448111
33307	-0.00115508	0.0447907
33346	-0.00113601	0.0463544
33385	-0.000945264	0.0442397
33424	-0.000983412	0.0436511
33463	-0.00107878	0.0434528
33502	-0.00123138	0.0440682
33541	-0.00111693	0.0432642
33580	-0.00119323	0.0424007
33619	-0.00126952	0.0426205
33658	-0.00102156	0.0422001
33697	-0.000849894	0.0431087
33736	-0.00100249	0.0412368
33775	-0.00113601	0.041072
33814	-0.00083082	0.0408907
33853	-0.000983412	0.0424908
33892	-0.00092619	0.0406246
33931	-0.00102156	0.0405929
33970	-0.0012123	0.0404882
34009	-0.0012886	0.0409669
34048	-0.00092619	0.0398666
34087	-0.00115508	0.0391605
34126	-0.000849894	0.0394334
34165	-0.000907116	0.039216
34204	-0.00113601	0.0396435
34243	-0.00125045	0.0380489
34282	-0.000983412	0.038332
34321	-0.00117415	0.0382074
34360	-0.000945264	0.0394624
34399	-0.00117415	0.0375886
34438	-0.00113601	0.0374746
34477	-0.00123138	0.0375956
34516	-0.00107878	0.0384414
34555	-0.000983412	0.0374037
34594	-0.000964338	0.036675
34633	-0.000983412	0.036717
34672	-0.00119323	0.0369034
34711	-0.000582856	0.0374948
34750	-0.00102156	0.0360615
34789	-0.00115508	0.0359692
34828	-0.00117415	0.0358922
34867	-0.000964338	0.0367111
34906	-0.000964338	0.0348835
34945	-0.000907116	0.034928
34984	-0.00109786	0.0346828
35023	-0.00123138	0.0356238
35062	-0.00107878	0.0345495
35101	-0.0012123	0.0341286
35140	-0.00107878	0.0341532
35179	-0.000907116	0.0342074
35218	-0.00130767	0.0345595
35257	-0.000945264	0.0334672
35296	-0.00115508	0.0334918
35335	-0.00109786	0.0334516
35374	-0.00115508	0.0344139
35413	-0.00115508	0.0328268
35452	-0.00132675	0.0329358
35491	-0.000983412	0.032929
35530	-0.0012123	0.0337793
35569	-0.000983412	0.0325747
35608	-0.00105971	0.0324627
35647	-0.00109786	0.0326991
35686	-0.00109786	0.0325893
35725	-0.00111693	0.0326464
35764	-0.000983412	0.0317521
35803	-0.00113601	0.0317891
35842	-0.000964338	0.0315536
35881	-0.00102156	0.0323338
35920	-0.00083082	0.0309144
35959	-0.00100249	0.0311123
35998	-0.00123138	0.0311027
36037	-0.000983412	0.0318436
36076	-0.00146027	0.0309092
36115	-0.00107878	0.0308479
36154	-0.00104063	0.0307352
36193	-0.00102156	0.0307815
36232	-0.00109786	0.0308989
36271	-0.00111693	0.0300446
36310	-0.00102156	0.030212
36349	-0.00104063	0.030061
36388	-0.00102156	0.0307549
36427	-0.000907116	0.0294999
36466	-0.000868968	0.029549
36505	-0.00115508	0.0295596
36544	-0.000735449	0.0304063
36583	-0.0012886	0.0292982
36622	-0.000964338	0.0291959
36661	-0.000983412	0.029189
36700	-0.000983412	0.0292376
36739	-0.00100249	0.0291597
36778	-0.00123138	0.0285269
36817	-0.00109786	0.0287474
36856	-0.00102156	0.02862
36895	-0.00102156	0.0293799
36934	-0.00109786	0.0282081
36973	-0.00111693	0.0284843
37012	-0.00092619	0.0284393
37051	-0.000888042	0.0292038
37090	-0.000964338	0.0277848
37129	-0.00111693	0.0276231
37168	-0.00111693	0.0277646
37207	-0.00100249	0.0280307
37246	-0.00117415	0.0276997
37285	-0.00092619	0.027173
37324	-0.000888042	0.0272581
37363	-0.000907116	0.0272201
37402	-0.00126952	0.0278508
37441	-0.00105971	0.0267776
37480	-0.00092619	0.0268891
37519	-0.000773597	0.0268079
37558	-0.000945264	0.0276561
37597	-0.00102156	0.0266074
37636	-0.00092619	0.0267135
37675	-0.00107878	0.0265662
37714	-0.000773597	0.026914
37753	-0.000964338	0.0264427
37792	-0.000983412	0.0260226
37831	-0.00092619	0.0262305
37870	-0.00100249	0.0261721
37909	-0.00109786	0.0267383
37948	-0.00092619	0.0256417
37987	-0.00113601	0.0257931
38026	-0.000449338	0.025795
38065	-0.00092619	0.0265843
38104	-0.000888042	0.0255256
38143	-0.00100249	0.0254361
38182	-0.0012123	0.0254178
38221	-0.0012123	0.0257745
38260	-0.000697301	0.0254377
38299	-0.00104063	0.0250639
38338	-0.00107878	0.0251266
38377	-0.00132675	0.0250397
38416	-0.0012123	0.0255832
38455	-0.000621005	0.0246858
38494	-0.000983412	0.0247714
38533	-0.00100249	0.0247809
38572	-0.00125045	0.0253794
38611	-0.000945264	0.0243281
38650	-0.000868968	0.0244578
38689	-0.000849894	0.0243741
38728	-0.000945264	0.0247499
38767	-0.00113601	0.0243344
38806	-0.00107878	0.0240126
38845	-0.00123138	0.0241932
38884	-0.00119323	0.0241733
38923	-0.00109786	0.0243883
38962	-0.00107878	0.0235251
39001	-0.00100249	0.0238388
39040	-0.00092619	0.0238126
39079	-0.00107878	0.0245636
39118	-0.00104063	0.0236257
39157	-0.00104063	0.0235253
39196	-0.00146027	0.0234779
39235	-0.0012123	0.0238262
39274	-0.00102156	0.0234383
39313	-0.000868968	0.0230792
39352	-0.00107878	0.0231966
39391	-0.000964338	0.0232466
39430	-0.000907116	0.023572
39469	-0.000735449	0.0229361
39508	-0.000945264	0.023195
39547	-0.000907116	0.0229549
39586	-0.00092619	0.0236477
39625	-2.00092	-35.2485
39664	-2.001	-18.0622
39703	-2.00088	-12.3652
39742	-2.00073	-9.55062
39781	-2.00081	-7.96765
39820	-2.00109	-6.90856
39859	-2.00075	-6.16343
39898	-2.00079	-5.61729
39937	-2.00085	-5.23903
39976	-2.00069	-4.91342
40015	-2.00081	-4.69203
40054	-2.00079	-4.50761
40093	-2.00062	-4.385
40132	-2.00102	-4.25941
40171	-2.0009	-4.15567
40210	-2.00085	-4.08202
40249	-2.00065	-4.0307
40288	-2.00086	-3.98914
40327	-2.00088	-3.93876
40366	-2.00085	-3.91312
40405	-2.00086	-3.89249
40444	-2.00079	-3.90082
40483	-2.00069	-3.87702
40522	-0.00092619	4.4685
40561	-0.00105971	1.78523
40600	-0.00107878	1.20921
40639	-0.00105971	0.94479
40678	-0.000868968	0.802187
40717	-0.00100249	0.713781
40756	-0.00102156	0.655193
40795	-0.00107878	0.605769
40834	-0.00100249	0.562134
40873	-0.00109786	0.530405
40912	-0.00113601	0.501929
40951	-0.0012123	0.479588
40990	-0.000945264	0.452648
41029	-0.000983412	0.434368
41068	-0.00113601	0.41799
41107	-0.000945264	0.408171
41146	-0.00111693	0.390119
41185	-0.00107878	0.379026
41224	-0.00126952	0.369129
41263	-0.00113601	0.363457
41302	-0.00105971	0.353574
41341	-0.00092619	0.345301
41380	-0.00102156	0.339378
41419	-0.00111693	0.333823
41458	-0.00104063	0.330639
41497	-0.00083082	0.321634
41536	-0.00119323	0.317276
41575	-0.000754523	0.312344
41614	-0.000849894	0.311089
41653	-0.00102156	0.302761
41692	-0.00102156	0.298245
41731	-0.00100249	0.293946
41770	-0.000868968	0.292287
41809	-0.00119323	0.287007
41848	-0.00105971	0.281784
41887	-0.00100249	0.278487
41926	-0.000849894	0.275644
41965	-0.000983412	0.273506
42004	-0.0012123	0.2674
42043	-0.00100249	0.264523
42082	-0.00092619	0.261106
42121	-0.00113601	0.26128
42160	-0.000945264	0.254786
42199	-0.000945264	0.251654
42238	-0.00111693	0.248721
42277	-0.00109786	0.24832
42316	-0.00104063	0.243768
42355	-0.00100249	0.239783
42394	-0.00109786	0.236971
42433	-0.000792671	0.234989
42472	-0.000945264	0.233294
42511	-0.000945264	0.228147
42550	-0.00102156	0.225813
42589	-0.00119323	0.223123
42628	-0.00111693	0.223271
42667	-0.00102156	0.217595
42706	-0.000945264	0.214984
42745	-0.000888042	0.212595
42784	-0.000945264	0.21239
42823	-0.000888042	0.207835
42862	-0.000964338	0.204578
42901	-0.00092619	0.202188
42940	-0.0012886	0.200525
42979	-0.00105971	0.198492
43018	-0.00092619	0.194362
43057	-0.000945264	0.192038
43096	-0.00115508	0.189641
43135	-0.000983412	0.189358
43174	-0.000964338	0.184543
43213	1.49927	33.3053
43252	1.4996	13.5096
43291	1.49916	9.57096
43330	1.4994	7.79492
43369	1.49935	6.72999
43408	1.49958	5.98149
43447	1.49927	5.43614
43486	1.49919	5.00839
43525	1.4994	4.66645
43564	1.4996	4.39185
43603	1.49927	4.16147
43642	1.49942	3.95264
43681	1.49937	3.78826
43720	1.49935	3.63614
43759	1.49933	3.49769
43798	1.4994	3.36189
43837	1.49935	3.23193
43876	1.49927	3.12088
43915	1.49923	3.00422
43954	1.49908	2.89416
43993	1.49923	2.77796
44032	1.4991	2.69551
44071	1.49937	2.60841
44110	1.49971	2.52776
44149	1.49933	2.443
44188	1.4991	2.37641
44227	1.499	2.32189
44266	1.49923	2.26764
44305	1.49919	2.22173
44344	1.49925	2.16954
44383	1.49937	2.15033
44422	1.49899	2.12268
44461	1.49935	2.10532
44500	1.49921	2.05646
44539	1.49923	2.04568
44578	1.49918	2.03623
44617	1.49935	2.0172
44656	1.49912	1.98474
44695	1.49965	1.96642
44734	1.49921	1.97455
44773	1.49935	1.96499
44812	1.49927	1.95416
44851	1.49944	1.91103
44890	1.49937	1.92039
44929	1.49937	1.92386
44968	1.49935	1.92816
45007	-0.000945264	-4.04209
45046	-0.00109786	-0.326203
45085	-0.000945264	-0.103503
45124	-0.00111693	-0.0417601
45163	-0.00111693	-0.0140928
45202	-0.00100249	-0.00182974
45241	-0.00105971	0.00793858
45280	-0.000792671	0.0143733
45319	-0.00115508	0.0212935
45358	-0.00100249	0.0219392
45397	-0.00111693	0.0247415
45436	-0.0012123	0.0271314
45475	-0.00126952	0.0302899
45514	-0.000735449	0.0305961
45553	-0.00117415	0.0310433
45592	-0.00111693	0.0323934
45631	-0.00105971	0.0335554
45670	-0.000945264	0.0351353
45709	-0.000907116	0.0337319
45748	-0.00115508	0.034783
45787	-0.000945264	0.0351378
45826	-0.000811746	0.0372587
45865	-0.00109786	0.0350807
45904	-0.000983412	0.0355322
45943	-0.000868968	0.0357708
45982	-0.000888042	0.0374658
46021	-0.00105971	0.0362445
46060	-0.000983412	0.0356888
46099	-0.000907116	0.0360906
46138	-0.00092619	0.0365333
46177	-0.000964338	0.0370525
46216	-0.00083082	0.0354326
46255	-0.00113601	0.0358775
46294	-0.00105971	0.0358932
46333	-0.000983412	0.0374884
46372	-0.000773597	0.0352289
46411	-0.00109786	0.0355321
46450	-0.00100249	0.0355037
46489	-0.00102156	0.0366448
46528	-0.000907116	0.0352395
46567	-0.00107878	0.034762
46606	-0.00100249	0.0349812
46645	-0.00113601	0.0353775
46684	-0.00105971	0.0354683
46723	-0.00125045	0.0340994
46762	-0.00117415	0.0342183
46801	-0.00119323	0.034054
46840	-0.00111693	0.0353074
46879	-0.00117415	0.0333789
46918	-0.000907116	0.033631
46957	-0.00102156	0.0334553
46996	-0.00100249	0.0344455
47035	-0.000964338	0.0330435
47074	-0.000888042	0.0328613
47113	-0.00100249	0.0328806
47152	-0.00092619	0.0331657
47191	-0.00126952	0.0331226
47230	-0.00105971	0.0321523
47269	-0.00119323	0.0324077
47308	-0.000945264	0.0321998
47347	-0.000983412	0.0330874
47386	-0.00115508	0.031411
47425	-0.00109786	0.0315705
47464	-0.00111693	0.0315112
47503	-0.00119323	0.0327373
47542	-0.00119323	0.0312098
47581	-0.000773597	0.0308136
47620	-0.00105971	0.0309347
47659	-0.00119323	0.0312475
47698	-0.0012886	0.0311868
47737	-0.000907116	0.0302555
47776	-0.00104063	0.0305566
47815	-0.00107878	0.0304566
47854	-0.000907116	0.0312014
47893	-0.00113601	0.0295753
47932	-0.00092619	0.0296372
47971	-0.000754523	0.0297091
48010	-0.000983412	0.0309531
48049	-0.00111693	0.0293581
48088	-0.000945264	0.0291796
48127	-0.00115508	0.0291779
48166	-0.000964338	0.0294455
48205	-0.000964338	0.0291981
48244	-0.00119323	0.0284841
48283	-0.00111693	0.028764
48322	-0.00092619	0.0286011
48361	-0.00102156	0.0293755
48400	-0.000907116	0.0280043
48439	-0.00102156	0.028162
48478	-0.000907116	0.0280901
48517	-0.000964338	0.0290101
48556	-0.000983412	0.0276451
48595	-0.00123138	0.027647
48634	-0.00092619	0.0276141
48673	-0.000983412	0.0280125
48712	-0.000849894	0.0275931
48751	-0.00100249	0.0269331
48790	-0.000964338	0.0271634
48829	-0.000659153	0.0271855
48868	-0.00083082	0.027792
48907	-0.00104063	0.0265829
48946	-0.00115508	0.0267024
48985	-0.000849894	0.0265832
49024	-0.00105971	0.0273741
49063	-0.00104063	0.026137
49102	-0.00151749	0.0261014
49141	-0.00117415	0.0260873
49180	-0.00100249	0.0266567
49219	-0.00109786	0.0261355
49258	-0.00138397	0.0256796
49297	-0.00105971	0.0256178
49336	-0.000964338	0.0256842
49375	-0.000849894	0.0262616
49414	-0.00109786	0.0252147
49453	-0.00111693	0.025356
49492	-0.00125045	0.0251914
49531	-0.00105971	0.0260058
49570	-0.00104063	0.0248609
49609	-0.00111693	0.0249105
49648	-0.000868968	0.0249873
49687	-0.00113601	0.0254298
49726	-0.000964338	0.0248644
49765	-0.00111693	0.024573
49804	-0.000945264	0.0246375
49843	-0.000964338	0.0245316
49882	-0.0012123	0.024834
49921	-0.00092619	0.0239541
49960	-0.000983412	0.0240975
49999	-0.00092619	0.0240165
50038	-0.00113601	0.0249032
50077	-0.000792671	0.0237103
50116	-0.00102156	0.0237643
50155	-0.000811746	0.023771
50194	-0.00105971	0.0242093
50233	-0.000964338	0.0236044
50272	-0.000773597	0.0233334
50311	-0.000964338	0.0234013
50350	-0.00105971	0.0233998
50389	-0.00107878	0.0236719
50428	-0.00115508	0.0229574
50467	-0.00100249	0.0232178
50506	-0.0012123	0.0231171
50545	-0.00113601	0.0237814
50584	-0.00119323	0.0226528
50623	-0.00100249	0.0227925
50662	-0.00111693	0.0227443
50701	-0.00107878	0.0233063
50740	-0.00119323	0.0226709
50779	-0.000888042	0.0224433
50818	-0.00100249	0.0224913
50857	-0.00104063	0.0224998
50896	-0.00117415	0.0226267
50935	-0.00113601	0.0219361
50974	-0.00132675	0.0220883
51013	-0.00100249	0.0220613
51052	-0.00109786	0.0227918
51091	-0.00109786	0.0217545
51130	-0.00109786	0.0219241
51169	-0.000945264	0.0218567
51208	-0.00123138	0.0224081
51247	-0.000945264	0.0216567
51286	-0.00111693	0.0215591
51325	-0.00115508	0.0215781
51364	-0.000945264	0.0216826
51403	-0.00113601	0.0218602
51442	-0.00102156	0.0211789
51481	-0.00102156	0.0213678
51520	-0.00123138	0.0213639
51559	-0.000964338	0.0219417
51598	-0.00100249	0.0209741
51637	-0.000849894	0.0211437
51676	-0.00109786	0.021098
51715	-0.00092619	0.0216518
51754	-0.000964338	0.0208857
51793	-0.000983412	0.0207469
51832	-0.000773597	0.0207854
51871	-0.000945264	0.0209267
51910	-0.000907116	0.0209177
51949	-0.00104063	0.0204944
51988	-0.000773597	0.0205962
52027	-0.00107878	0.0205019
52066	-0.000907116	0.0210995
52105	-0.00105971	0.0202427
52144	-0.00107878	0.0203776
52183	-0.000907116	0.0203044
52222	-0.00115508	0.0208791
52261	-0.00115508	0.0200952
52300	-0.00126952	0.0200689
52339	-0.00105971	0.0201232
52378	-0.000945264	0.0203093
52417	-0.000945264	0.0201142
52456	-0.000964338	0.0198329
52495	-0.00119323	0.0199589
52534	-0.000964338	0.0198782
52573	-0.00104063	0.0203944
52612	-0.000849894	0.0196138
52651	-0.000983412	0.0197678
52690	-0.00092619	0.0196641
52729	-0.000945264	0.020293
52768	-0.00109786	0.0195005
52807	-0.00104063	0.0194839
52846	-0.00109786	0.0194926
52885	-0.000907116	0.019649
52924	-0.000754523	0.0195986
52963	-0.000907116	0.0191868
53002	-0.000964338	0.0193082
53041	-0.000868968	0.0192261
53080	-0.00092619	0.0196799
53119	-0.00107878	0.0188893
53158	-0.00115508	0.0189972
53197	-0.00100249	0.0189847
53236	-0.00111693	0.0195932
53275	-0.00107878	0.0187109
53314	-0.00109786	0.0188308
53353	-0.000907116	0.0188676
53392	-0.000868968	0.0190684
53431	-0.000773597	0.0189015
53470	-0.000907116	0.0185877
53509	-0.00092619	0.0187369
53548	-0.00102156	0.0187018
53587	-0.000907116	0.0189864
53626	-0.000888042	0.0183111
53665	-0.00083082	0.0184575
53704	-0.00115508	0.0184226
53743	-0.000945264	0.0190328
53782	-0.00104063	0.0182698
53821	-0.00104063	0.0182769
53860	-0.000964338	0.0183128
53899	-0.000907116	0.0185124
53938	-0.00105971	0.0182225
53977	-0.0012123	0.0180185
54016	-2.00064	-33.6544
54055	-2.00104	-13.6904
54094	-2.00081	-9.19564
54133	-2.00092	-7.23262
54172	-2.00085	-6.13525
54211	-2.00088	-5.41859
54250	-2.00065	-4.92388
54289	-2.00071	-4.55835
54328	-2.00092	-4.26268
54367	-2.00085	-4.04033
54406	-2.00071	-3.87008
54445	-2.00081	-3.73946
54484	-2.00096	-3.61488
54523	-2.00073	-3.51975
54562	-2.00085	-3.4455
54601	-2.0006	-3.39724
54640	-2.00092	-3.33504
54679	-2.00088	-3.29003
54718	-2.0009	-3.25877
54757	-2.00079	-3.24189
54796	-2.00085	-3.21693
54835	-2.00073	-3.19825
54874	-2.00086	-3.18305
54913	-0.00111693	7.07742
54952	-0.000983412	2.00844
54991	-0.000849894	1.20041
55030	-0.00119323	0.889505
55069	-0.00123138	0.724895
55108	-0.00111693	0.627758
55147	-0.00107878	0.550883
55186	-0.000773597	0.49918
55225	-0.000945264	0.4572
55264	-0.000754523	0.428675
55303	-0.00111693	0.398331
55342	-0.00100249	0.374423
55381	-0.000907116	0.354545
55420	-0.00102156	0.338711
55459	-0.000945264	0.323587
55498	-0.000945264	0.308445
55537	-0.0012123	0.297784
55576	-0.00092619	0.288325
55615	-0.00119323	0.2829
55654	-0.00105971	0.272751
55693	-0.00107878	0.266994
55732	-0.000735449	0.261564
55771	-0.0012886	0.259501
55810	-0.00107878	0.25261
55849	-0.00115508	0.247979
55888	-0.00102156	0.244086
55927	-0.00111693	0.24153
55966	-0.000945264	0.237357
56005	-0.00102156	0.232279
56044	-0.00092619	0.229052
56083	-0.00115508	0.225658
56122	-0.00109786	0.224034
56161	-0.00100249	0.218297
56200	-0.0012123	0.215248
56239	-0.000983412	0.212223
56278	-0.00092619	0.211491
56317	-0.000983412	0.206074
56356	-0.000754523	0.202873
56395	-0.00100249	0.200015
56434	-0.00115508	0.198553
56473	-0.000983412	0.195038
56512	-0.000716375	0.191136
56551	-0.000983412	0.188625
56590	-0.000945264	0.18599
56629	-0.000868968	0.18447
56668	-0.00104063	0.179658
56707	-0.00109786	0.17718
56746	-0.00109786	0.174382
56785	-0.00117415	0.173718
56824	-0.00105971	0.168963
56863	-0.000983412	0.166276
56902	-0.00102156	0.163777
56941	-0.00119323	0.16235
56980	-0.00100249	0.158977
57019	-0.000754523	0.155706
57058	-0.00132675	0.153417
57097	-0.00083082	0.151083
57136	-0.00104063	0.149555
57175	-0.000945264	0.145594
57214	-0.00119323	0.143477
57253	-0.00117415	0.141146
57292	-0.00092619	0.140394
57331	-0.00115508	0.136382
57370	-0.00117415	0.134189
57409	-0.00104063	0.13214
57448	-0.00109786	0.131137
57487	-0.000983412	0.128154
57526	-0.00102156	0.125535
57565	-0.00092619	0.123793
57600	-0.00104063	0.122239