File: Data_21_Experiment/CA_001_C01.txt
time/s	Ewe/V	<I>/mA
1	-0.000715755	9.87529
40	-0.000811126	0.157546
79	-0.000887422	0.0978895
118	-0.000753903	0.0758581
157	-0.000811126	0.0640169
196	-0.000849274	0.0566356
235	-0.00102094	0.0515888
274	-0.000906496	0.0476363
313	-0.000753903	0.0446661
352	-0.000849274	0.0423493
391	-0.0008302	0.0402836
430	-0.000544088	0.0386084
469	-0.000772977	0.0372781
508	-0.000868348	0.0359852
547	-0.000906496	0.0350137
586	-0.000753903	0.0339335
625	-0.00092557	0.0331563
664	-0.00092557	0.0322654
703	-0.000944644	0.0315615
742	-0.000811126	0.0308661
781	-0.0008302	0.0304076
820	-0.000982793	0.0297225
859	-0.000696681	0.0292255
898	-0.000868348	0.0286416
937	-0.00092557	0.0283
976	-0.000677607	0.0277767
1015	-0.00092557	0.0274335
1054	-0.000772977	0.0269327
1093	-0.00105909	0.0267338
1132	-0.000772977	0.0263781
1171	-0.000906496	0.0259264
1210	-0.000963718	0.0256863
1249	-0.00102094	0.0253607
1288	-0.000792052	0.0251843
1327	-0.000887422	0.0248626
1366	-0.000849274	0.0244788
1405	-0.000906496	0.0241252
1444	-0.000849274	0.0240488
1483	-0.000811126	0.0238616
1522	-0.000944644	0.0235845
1561	-0.000753903	0.0234259
1600	-0.00104001	0.0231321
1639	-0.00092557	0.0230351
1678	-0.000811126	0.0226554
1717	-0.000696681	0.0226272
1756	-0.000811126	0.0223195
1795	-0.000772977	0.0223081
1833.95	-0.00092557	0.0224293
1872.95	-0.000811126	0.0219809
1911.95	-0.000906496	0.0219462
1950.95	-0.000868348	0.0216925
1989.95	-0.000658533	0.0214735
2028.95	-0.00092557	0.0211927
2067.95	-0.000887422	0.0209993
2106.95	-0.000849274	0.0208872
2145.95	-0.000906496	0.0206516
2184.95	-0.000906496	0.0203936
2223.95	-0.00102094	0.0202814
2262.95	-0.000887422	0.0201087
2301.95	-0.00100187	0.0199988
2340.95	-0.0008302	0.0198118
2379.95	-0.000772977	0.0197128
2418.95	-0.000963718	0.019614
2457.95	-0.000811126	0.0194679
2496.95	-0.000849274	0.0191513
2535.95	-0.000849274	0.019121
2574.95	-0.000772977	0.0189716
2613.95	-0.00105909	0.0189501
2652.95	-0.000963718	0.0187736
2691.95	-0.000868348	0.0186523
2730.95	-0.0008302	0.0185821
2769.95	-0.000944644	0.0184488
2808.95	-0.000753903	0.0183869
2847.95	-0.0008302	0.0183239
2886.95	-0.000963718	0.0181048
2925.95	-0.000887422	0.0180704
2964.95	-0.000849274	0.0179688
3003.95	-0.00092557	0.0178998
3042.95	-0.000792052	0.0177887
3081.95	-0.000811126	0.017731
3120.95	-0.000753903	0.0177135
3159.95	-0.000639459	0.0175116
3198.95	-0.000715755	0.0175616
3237.95	-0.000677607	0.0174132
3276.95	-0.000868348	0.0173079
3315.95	-0.000906496	0.0171516
3354.95	-0.000868348	0.0171089
3393.95	-0.000639459	0.0170606
3432.95	-0.000849274	0.0168148
3471.95	-0.000887422	0.0169588
3510.95	-0.000715755	0.0167929
3549.95	-0.000944644	0.0165413
3588.95	-0.000849274	0.0165817
3627.95	-0.000887422	0.016555
3666.95	-0.000811126	0.0164668
3705.95	-0.00102094	0.0164887
3744.95	-0.000753903	0.0162269
3783.95	-0.000677607	0.0162731
3822.95	-0.000792052	0.0161869
3861.95	-0.0008302	0.0161754
3900.95	-0.000811126	0.0160818
3939.95	-0.000849274	0.0159878
3978.95	-0.000811126	0.0159922
4017.95	-0.000963718	0.0159526
4056.95	-0.00092557	0.0157814
4095.95	-0.0008302	0.01588
4134.95	-0.000715755	0.0156856
4173.95	-0.000887422	0.0156549
4212.95	-0.000868348	0.0155184
4251.95	-0.000734829	0.015447
4290.95	-0.000734829	0.0154658
4329.95	-0.000772977	0.0153864
4368.95	-0.000963718	0.0152989
4407.95	-0.000849274	0.0152191
4446.95	-0.000906496	0.0151924
4485.95	-0.000753903	0.0151408
4524.95	-0.00092557	0.0150025
4563.95	-0.000944644	0.0150066
4602.95	-0.000868348	0.0149623
4641.95	-0.000811126	0.0149324
4680.95	-0.000887422	0.0149047
4719.95	-0.000906496	0.0148526
4758.95	-0.000906496	0.014643
4797.95	-0.000944644	0.0146684
4836.95	-0.000963718	0.0146456
4875.95	-0.000811126	0.0145269
4914.95	-0.000906496	0.0145357
4953.95	-0.000849274	0.0143748
4992.95	-0.000753903	0.0144111
5031.95	-0.000792052	0.014351
5070.95	-0.00092557	0.0143097
5109.95	-0.000601311	0.0143432
5148.95	-0.000811126	0.0141146
5187.95	-0.000753903	0.0143103
5226.95	-0.00092557	0.0141645
5265.95	-0.000868348	0.0141535
5304.95	-0.000887422	0.0140063
5343.95	-0.000811126	0.01391
5382.95	-0.000792052	0.0139165
5421.95	-0.000887422	0.0138956
5460.95	-0.000734829	0.0138178
5499.95	-0.000792052	0.013846
5538.95	-0.000887422	0.0137284
5577.95	-0.00092557	0.0138016
5616.95	-0.000887422	0.013691
5655.95	-0.000677607	0.0135572
5694.95	-0.000887422	0.0136035
5733.95	-0.000963718	0.0135591
5772.95	-0.000849274	0.0135019
5811.95	-0.000811126	0.0134187
5850.95	-0.000772977	0.0134726
5889.95	-0.000849274	0.013272
5928.95	-0.000734829	0.0132392
5967.95	-0.000677607	0.0132363
6006.95	-0.000734829	0.0133214
6045.95	-0.000887422	0.0132126
6084.95	-0.000868348	0.0131636
6123.95	-0.000792052	0.0130099
6162.95	-0.0008302	0.0129905
6201.95	-0.000772977	0.0130215
6240.95	-0.000868348	0.0129934
6279.95	-0.000715755	0.0130828
6318.95	-0.000792052	0.0129017
6357.95	-0.000906496	0.0129115
6396.95	-0.000734829	0.0129416
6435.95	-0.000715755	0.0127749
6474.95	-0.000696681	0.0127556
6513.95	-0.000753903	0.0127486
6552.95	-0.00105909	0.0127418
6591.95	-0.000772977	0.0126975
6630.95	-0.0008302	0.012705
6669.95	-0.00092557	0.0126493
6708.95	-0.000944644	0.0125838
6747.95	-0.000772977	0.0125101
6786.95	-0.000982793	0.0124641
6825.95	-0.000944644	0.0124927
6864.95	-0.000906496	0.0124581
6903.95	-0.000753903	0.012241
6942.95	-0.000792052	0.012295
6981.95	-0.000963718	0.0122301
7020.95	-0.00100187	0.0123432
7059.95	-0.000963718	0.0122871
7098.95	-0.000849274	0.0121902
7137.95	-0.000734829	0.0121435
7176.95	-0.000811126	0.0120831
7215.95	-0.000792052	0.0121808
7254.95	-0.000868348	0.0120677
7293.95	-0.000792052	0.0120231
7332.95	-0.0008302	0.0119799
7371.95	-0.000887422	0.012058
7410.95	-0.000849274	0.0118766
7449.95	-0.000849274	0.0118609
7488.95	-0.000849274	0.0118419
7527.95	-0.000868348	0.0118799
7566.95	-0.000887422	0.0117795
7605.95	-0.000811126	0.0118513
7644.95	-0.000887422	0.0116972
7683.95	-0.000982793	0.0116763
7722.95	-0.000963718	0.0117669
7761.95	-0.000753903	0.0116584
7800.95	-0.00104001	0.0116418
7839.95	-0.000696681	0.0115977
7878.95	-0.000849274	0.011637
7917.95	-0.000792052	0.0115406
7956.95	-0.000906496	0.0115148
7995.95	-0.000868348	0.0113982
8034.95	-0.00092557	0.0115131
8073.95	-0.000868348	0.0114242
8112.95	-0.00113539	0.0113542
8151.95	-0.000734829	0.0112935
8190.95	-0.00092557	0.0112569
8229.95	-0.00104001	0.0112915
8268.95	-0.000677607	0.0112688
8307.95	-0.000792052	0.011253
8346.95	-0.000696681	0.0113137
8385.95	-0.000982793	0.0111593
8424.95	-0.00115446	0.0112113
8463.95	-0.00105909	0.0112302
8502.95	-0.000944644	0.0111261
8541.95	-0.000849274	0.0110657
8580.95	-0.000963718	0.0108172
8619.95	-0.000963718	0.0110648
8658.95	-0.000887422	0.0109684
8697.95	-0.000849274	0.0110147
8736.95	-0.00102094	0.0109875
8775.95	-0.000734829	0.0109315
8814.95	-0.000868348	0.0108103
8853.95	-0.000906496	0.0108754
8892.95	-0.000658533	0.0107964
8931.95	-0.00104001	0.0108019
8970.95	-0.000734829	0.0107943
9009.95	-0.000715755	0.0108565
9048.95	-0.000849274	0.0107877
9087.95	-0.000963718	0.0107748
9126.95	-0.0008302	0.0107869
9165.95	-0.000792052	0.0107311
9204.95	-0.00092557	0.0107021
9243.95	-0.000944644	0.0106956
9282.95	-0.00092557	0.0106305
9321.95	-0.000696681	0.0105214
9360.95	-0.000887422	0.0106191
9399.95	-0.0008302	0.0105829
9438.95	-0.000906496	0.0105058
9477.95	-0.000963718	0.0104131
9516.95	-0.000849274	0.0104593
9555.95	-0.00102094	0.0104969
9594.95	-0.000849274	0.0103917
9633.95	-0.000906496	0.0104047
9672.95	-0.000677607	0.010381
9711.95	-0.000772977	0.0103557
9750.95	-0.000772977	0.0102458
9789.95	-0.000849274	0.0103235
9828.95	-0.00105909	0.0103651
9867.95	-0.000696681	0.0103252
9906.95	-0.000887422	0.0103002
9945.95	-0.00092557	0.0102408
9984.95	-0.000906496	0.0102952
10024	-0.000887422	0.0102097
10063	-0.000963718	0.0101336
10102	-0.000753903	0.0102268
10141	-0.000944644	0.0100675
10180	-0.00107816	0.0101608
10219	-0.00092557	0.0100708
10258	-0.000868348	0.0100596
10297	-0.000620385	0.0100152
10336	-0.000639459	0.0100166
10375	-0.000696681	0.0099914
10414	-0.00104001	0.00981746
10453	-0.000849274	0.00988916
10492	-0.000753903	0.00984545
10531	-0.000772977	0.00988749
10570	-0.000792052	0.00989346
10609	-0.000753903	0.00983875
10648	-0.000963718	0.00990105
10687	-0.00105909	0.00974762
10726	-0.0008302	0.0100072
10765	-0.000696681	0.00973299
10804	-2.00085	-76.7547
10843	-2.00079	-28.0602
10882	-2.00092	-24.2427
10921	-2.00086	-22.6719
10960	-2.00088	-21.7768
10999	-2.00088	-21.2375
11038	-2.00079	-20.8663
11077	-2.00081	-20.6278
11116	-2.00085	-20.443
11155	-2.00086	-20.3025
11194	-2.00086	-20.2007
11233	-2.00081	-20.1265
11272	-2.00081	-20.062
11311	-2.00079	-20.0294
11350	-2.00096	-20.0148
11389	-2.00098	-20.013
11428	-2.00085	-20.0109
11467	-2.00094	-20.0208
11506	-2.0009	-20.0302
11545	-2.00109	-20.059
11584	-2.00096	-20.0814
11623	-2.00086	-20.1267
11662	-2.00086	-20.1647
11701	-0.00092557	108.502
11740	-0.000887422	3.24462
11779	-0.000887422	1.48298
11818	-0.000887422	0.871697
11857	-0.000849274	0.59557
11896	-0.000906496	0.442915
11935	-0.00102094	0.348878
11974	-0.000849274	0.28637
12013	-0.00100187	0.241537
12052	-0.0008302	0.208433
12091	-0.000811126	0.182566
12130	-0.000868348	0.162246
12169	-0.000944644	0.146125
12208	-0.000982793	0.132734
12247	-0.000792052	0.121534
12286	-0.00092557	0.111954
12325	-0.0008302	0.103915
12364	-0.0008302	0.0968201
12403	-0.00092557	0.0907986
12442	-0.00104001	0.085282
12481	-0.00102094	0.0803823
12520	-0.000887422	0.0762222
12559	-0.00092557	0.0724738
12598	-0.000906496	0.0688611
12637	-0.000677607	0.0656177
12676	-0.00109724	0.062863
12715	-0.000639459	0.060281
12754	-0.000906496	0.0578203
12793	-0.000734829	0.0556065
12832	-0.000811126	0.0536128
12871	-0.000887422	0.0516664
12910	-0.000792052	0.0499513
12949	-0.000792052	0.0479564
12988	-0.000734829	0.0466232
13027	-0.000849274	0.0450502
13066	-0.000887422	0.0438095
13105	-0.000849274	0.0424925
13144	-0.000906496	0.0413229
13183	-0.000906496	0.0403407
13222	-0.00092557	0.0392226
13261	-0.000792052	0.0382153
13300	-0.000544088	0.0371628
13339	-0.000963718	0.0363134
13378	-0.000811126	0.0354503
13417	-0.000944644	0.0347742
13456	-0.000849274	0.0339868
13495	-0.000887422	0.0332437
13534	-0.000849274	0.0325181
13573	-0.000868348	0.0319543
13612	-0.000887422	0.0312744
13651	-0.000906496	0.0306614
13690	-0.000963718	0.0300711
13729	-0.000868348	0.0295731
13768	-0.00102094	0.0290501
13807	-0.00092557	0.0284891
13846	-0.000601311	0.028048
13885	-0.000792052	0.0275741
13924	-0.000868348	0.0271058
13963	-0.000811126	0.02666
14002	-0.000696681	0.0263135
14041	-0.000677607	0.0258253
14080	-0.000849274	0.0255143
14119	-0.000792052	0.0251004
14158	-0.000792052	0.0247379
14197	-0.0008302	0.0244505
14236	-0.00092557	0.0242555
14275	-0.0008302	0.0237325
14314	-0.000811126	0.0234545
14353	-0.000772977	0.0231094
14392	-0.00092557	0.022856
14431	-0.000734829	0.0233391
14470	-0.000887422	0.0230288
14509	-0.000753903	0.0228222
14548	-0.000772977	0.022527
14587	-0.000658533	0.0223456
14626	-0.00092557	0.0221031
14665	-0.000772977	0.0217379
14704	-0.000734829	0.0214784
14743	-0.000963718	0.0212563
14782	-0.00105909	0.0209719
14821	-0.000792052	0.0207799
14860	-0.000906496	0.0205022
14899	-0.000906496	0.0201645
14938	-0.000792052	0.0200696
14977	-0.000792052	0.019751
15016	-0.000753903	0.0196161
15055	-0.0008302	0.0193193
15094	-0.000849274	0.0191707
15133	-0.000944644	0.0188502
15172	-0.000868348	0.0187091
15211	-0.00092557	0.0184674
15250	-0.000849274	0.0183086
15289	-0.000944644	0.0181125
15328	-0.000849274	0.0179108
15367	-0.000658533	0.0177462
15406	-0.00105909	0.0175254
15445	-0.000849274	0.0173765
15484	-0.0008302	0.0172406
15523	-0.000906496	0.0169617
15562	-0.000792052	0.0168201
15601	-0.00102094	0.0167021
15640	-0.000887422	0.0164909
15679	-0.000887422	0.0164545
15718	-0.00092557	0.0163028
15757	-0.00100187	0.0160638
15796	-0.0008302	0.016011
15835	-0.000887422	0.0158121
15874	-0.000753903	0.0156839
15913	-0.000887422	0.0155826
15952	-0.000792052	0.015464
15991	-0.000772977	0.0153
16030	-0.000906496	0.0152094
16069	-0.000811126	0.0149898
16108	-0.0008302	0.0149658
16147	-0.000792052	0.0147758
16186	-0.0008302	0.0146327
16225	-0.000849274	0.0147146
16264	-0.000696681	0.0135211
16303	-0.000849274	0.0143676
16342	-0.000753903	0.0143086
16381	-0.000811126	0.0142231
16420	-0.000944644	0.0140703
16459	-0.000658533	0.0139563
16498	-0.00107816	0.0138362
16537	-0.000868348	0.0137169
16576	-0.000868348	0.0136507
16615	-0.00102094	0.0134654
16654	-0.000715755	0.0134525
16693	-0.000849274	0.0133075
16732	-0.000887422	0.0132063
16771	-0.000982793	0.0131971
16810	-0.000963718	0.0130619
16849	-0.000849274	0.0130148
16888	-0.000963718	0.0129746
16927	-0.00092557	0.0127788
16966	-0.000868348	0.0128279
17005	-0.000792052	0.0126328
17044	-0.000963718	0.0125034
17083	-0.000944644	0.0125327
17122	-0.000715755	0.0124316
17161	-0.000982793	0.0123658
17200	-0.000963718	0.0123145
17239	-0.000792052	0.0122176
17278	-0.0008302	0.0121559
17317	-0.000887422	0.0121377
17356	-0.000887422	0.0120351
17395	-0.000868348	0.0119305
17434	-0.000849274	0.0118723
17473	-0.000963718	0.0117848
17512	-0.000906496	0.0117657
17551	-0.000868348	0.0116698
17590	-0.000811126	0.0116032
17629	-0.000963718	0.0115994
17668	-0.000792052	0.0115498
17707	-0.000868348	0.0113025
17746	-0.000715755	0.0114039
17785	-0.00092557	0.0112991
17824	-0.000753903	0.0112935
17863	-0.00092557	0.0112594
17902	-0.000944644	0.0110754
17941	-0.000753903	0.0110612
17980	-0.00113539	0.0110718
18019	-0.000963718	0.0109904
18058	-0.000944644	0.0109018
18097	-0.000715755	0.0109215
18136	-0.000906496	0.0108235
18175	-0.000772977	0.0108515
18214	-0.000868348	0.0107255
18253	-0.000944644	0.0107572
18292	-0.000715755	0.0107165
18331	-0.00104001	0.0107762
18370	-0.000944644	0.0105164
18409	-0.000887422	0.0105809
18448	-0.000792052	0.0103983
18487	-0.000868348	0.0104655
18526	-0.000753903	0.0103687
18565	-0.000658533	0.0103702
18604	-0.000792052	0.0102678
18643	-0.000677607	0.0102861
18682	-0.000868348	0.0102153
18721	-0.000887422	0.0101961
18760	-0.000849274	0.0101292
18799	-0.000868348	0.0100491
18838	-0.000734829	0.0101763
18877	-0.000887422	0.0100108
18916	-0.000772977	0.00991582
18955	-0.000887422	0.00982767
18994	-0.000677607	0.00992383
19033	-0.000753903	0.00985541
19072	-0.000868348	0.00975907
19111	-0.000811126	0.00979123
19150	-0.0008302	0.00972612
19189	-0.000792052	0.00966524
19228	-0.0008302	0.00960264
19267	-0.000849274	0.00956617
19306	-0.000792052	0.00954265
19345	-0.000811126	0.00955377
19384	-0.0008302	0.00945651
19423	-0.000887422	0.00937719
19462	-0.00102094	0.00931084
19501	-0.000715755	0.00937232
19540	-0.000982793	0.00931668
19579	-0.0008302	0.00930699
19618	-0.000963718	0.0092033
19657	-0.0008302	0.00920357
19696	-0.000734829	0.00918042
19735	-0.000868348	0.00916351
19774	-0.000849274	0.00909941
19813	-0.000982793	0.00903177
19852	-0.000868348	0.00909411
19891	-0.000906496	0.00898059
19930	-0.000792052	0.00897287
19969	-0.000868348	0.00892059
20008	-0.000906496	0.00888265
20047	-0.0008302	0.00885932
20086	-0.00092557	0.00885666
20125	-0.000887422	0.00855812
20164	-0.000658533	0.00880948
20203	-0.0008302	0.00878804
20242	-0.000753903	0.00871523
20281	-0.000849274	0.00867083
20320	-0.000963718	0.00868211
20359	-0.000849274	0.00868292
20398	-0.00092557	0.00857948
20437	-0.000715755	0.00860419
20476	-0.000906496	0.00852318
20515	-0.000734829	0.00862869
20554	-0.000811126	0.00850588
20593	-0.000868348	0.00842699
20632	-0.000887422	0.00845384
20671	-0.000906496	0.00845554
20710	-0.000887422	0.00833574
20749	-0.000772977	0.00832352
20788	-0.00092557	0.00824615
20827	-0.000849274	0.00825625
20866	-0.000792052	0.00829754
20905	-0.000982793	0.00827156
20944	-0.000772977	0.00816966
20983	-0.000715755	0.00813896
21022	-0.000811126	0.00818862
21061	-0.000906496	0.00813674
21100	-0.000753903	0.00804171
21139	-0.000868348	0.00795369
21178	-0.0008302	0.00800878
21217	-0.000811126	0.00804411
21256	-0.0008302	0.00800605
21295	-0.000601311	0.00797979
21334	-0.000792052	0.00807737
21373	-0.000944644	0.00797048
21412	-0.000772977	0.00790254
21451	-0.000849274	0.00788738
21490	-0.000811126	0.00786798
21529	-0.0008302	0.00781914
21568	-0.00092557	0.00781666
21607	-0.000849274	0.00771282
21646	-0.000677607	0.007759
21685	-0.000887422	0.00778637
21724	-0.000715755	0.00771249
21763	-0.000811126	0.0076723
21802	-0.000772977	0.00763895
21841	-0.00100187	0.00764307
21880	-0.0008302	0.00771845
21919	-0.000639459	0.00753336
21958	-0.000696681	0.00754061
21997	-0.000868348	0.00753799
22036	-0.000811126	0.00760866
22075	-0.000963718	0.00745254
22114	-0.0008302	0.00749973
22153	-0.000849274	0.00743226
22192	-0.000792052	0.00749661
22231	-0.000734829	0.00740373
22270	-0.000696681	0.00744272
22309	-0.000772977	0.00741293
22348	-0.000849274	0.00743228
22387	-0.000753903	0.0074098
22426	-0.000849274	0.00724265
22465	-0.000811126	0.00731931
22504	-0.000753903	0.00730092
22543	-0.000868348	0.0073532
22582	-0.000677607	0.0073586
22621	-0.000849274	0.00729845
22660	-0.0008302	0.00712574
22699	-0.000868348	0.00715839
22738	-0.0008302	0.0071517
22777	-0.00100187	0.00728065
22816	-0.000792052	0.00720988
22855	-0.0008302	0.00722508
22894	-0.000868348	0.00710213
22933	-0.000715755	0.00708355
22972	-0.000982793	0.00705319
23011	-0.000715755	0.00701399
23050	-0.000906496	0.00708385
23089	-0.000772977	0.0071165
23128	-0.000887422	0.00701427
23167	-0.000944644	0.00697079
23206	-0.00102094	0.00692149
23245	-0.00092557	0.00700658
23284	-0.000811126	0.0070279
23323	-0.000849274	0.00686591
23362	-0.000658533	0.00695854
23401	-0.000734829	0.00687771
23440	-0.000753903	0.00690426
23479	-0.000887422	0.00691879
23518	-0.000753903	0.00688309
23557	-0.000868348	0.00690364
23596	-0.00113539	0.00686475
23635	-0.0008302	0.00684157
23674	-0.000906496	0.00681641
23713	-0.00104001	0.00689085
23752	-0.0008302	0.006745
23791	-0.000906496	0.00673807
23830	-0.000944644	0.0068099
23869	-0.000887422	0.00676357
23908	-0.000982793	0.00666788
23947	-0.000696681	0.00670675
23986	-0.000982793	0.00676051
24025	-0.000811126	0.00662704
24064	-0.000906496	0.00669442
24103	-0.000906496	0.00666569
24142	-0.000849274	0.00656614
24181	-0.000734829	0.00657664
24220	-0.000982793	0.00664702
24259	-0.0008302	0.00659885
24298	-0.000715755	0.00651809
24337	-0.000467792	0.00654973
24376	-0.000772977	0.00656877
24415	-0.000753903	0.00658047
24454	-0.00100187	0.0065208
24493	-0.000868348	0.00653162
24532	-0.00100187	0.00645157
24571	-0.00092557	0.00650954
24610	-0.000677607	0.00645631
24649	-0.000792052	0.00650033
24688	-0.000715755	0.00638395
24727	-0.000868348	0.00649506
24766	-0.0008302	0.00635536
24805	-0.000811126	0.00641901
24844	-0.0008302	0.00628256
24883	-0.00092557	0.00633339
24922	-0.000772977	0.00639411
24961	-0.000753903	0.00632214
25000	-0.0008302	0.00626245
25039	-0.000772977	0.00625362
25078	-0.000811126	0.00628872
25117	-0.00109724	0.00626135
25156	-0.000849274	0.00617448
25195	-0.000868348	0.00623537
25234	-2.00081	-13.2781
25273	-2.00086	-10.5195
25312	-2.00081	-9.65006
25351	-2.00086	-9.29447
25390	-2.00086	-9.04353
25429	-2.00073	-8.88611
25468	-2.00088	-8.78962
25507	-2.00077	-8.73283
25546	-2.0009	-8.70629
25585	-2.00079	-8.69126
25624	-2.00081	-8.69115
25663	-2.00085	-8.69825
25702	-2.00077	-8.7141
25741	-2.00086	-8.73129
25780	-2.0009	-8.75705
25819	-2.00069	-8.78696
25858	-2.00096	-8.81746
25897	-2.00094	-8.8529
25936	-2.00073	-8.88432
25975	-2.00083	-8.91698
26014	-2.00083	-8.95652
26053	-2.00073	-8.9927
26092	-2.00094	-9.03408
26131	-0.00100187	3.8847
26170	-0.000734829	1.56268
26209	-0.000715755	0.902653
26248	-0.000734829	0.593648
26287	-0.000696681	0.426757
26326	-0.000811126	0.328127
26365	-0.000849274	0.264229
26404	-0.000772977	0.220295
26443	-0.0008302	0.18794
26482	-0.00100187	0.163781
26521	-0.000887422	0.145085
26560	-0.0008302	0.130417
26599	-0.00102094	0.118212
26638	-0.000696681	0.108252
26677	-0.00092557	0.099822
26716	-0.000601311	0.0926563
26755	-0.000811126	0.0865058
26794	-0.000887422	0.0810072
26833	-0.00092557	0.076249
26872	-0.000811126	0.0720428
26911	-0.000677607	0.0683041
26950	-0.000868348	0.0649734
26989	-0.000753903	0.0618501
27028	-0.000811126	0.0589656
27067	-0.000772977	0.0566836
27106	-0.000792052	0.0542975
27145	-0.000772977	0.0522314
27184	-0.00102094	0.0503912
27223	-0.000753903	0.0483746
27262	-0.00100187	0.0466657
27301	-0.000811126	0.0451372
27340	-0.000772977	0.0436162
27379	-0.000811126	0.0422281
27418	-0.00092557	0.0410954
27457	-0.000868348	0.0398535
27496	-0.000734829	0.0388501
27535	-0.0008302	0.0377168
27574	-0.000811126	0.036867
27613	-0.000849274	0.0358575
27652	-0.00092557	0.0348808
27691	-0.00104001	0.0341166
27730	-0.0008302	0.0333908
27769	-0.000753903	0.0328108
27808	-0.000677607	0.0319129
27847	-0.0008302	0.0312449
27886	-0.000906496	0.0306328
27925	-0.000849274	0.0299008
27964	-0.000715755	0.0293303
28003	-0.000868348	0.0288357
28042	-0.000963718	0.0282497
28081	-0.000906496	0.0277774
28120	-0.00115446	0.027257
28159	-0.0008302	0.0267652
28198	-0.00107816	0.0263302
28237	-0.000944644	0.0258923
28276	-0.0008302	0.0254454
28315	-0.000658533	0.0250275
28354	-0.00107816	0.0246552
28393	-0.000963718	0.0242653
28432	-0.000906496	0.0240114
28471	-0.000734829	0.0235715
28510	-0.000868348	0.0231739
28549	-0.0008302	0.0228766
28588	-0.000868348	0.022581
28627	-0.000734829	0.0221885
28666	-0.000849274	0.0219802
28705	-0.000887422	0.0217426
28744	-0.000715755	0.0214579
28783	-0.000811126	0.0211845
28822	-0.00105909	0.0221428
28861	-0.000906496	0.0213422
28900	-0.000868348	0.021183
28939	-0.000868348	0.020925
28978	-0.000753903	0.0205694
29017	-0.000792052	0.0203058
29056	-0.00100187	0.0199937
29095	-0.000906496	0.019854
29134	-0.000715755	0.0195444
29173	-0.000792052	0.0193952
29212	-0.000849274	0.019094
29251	-0.000811126	0.0188582
29290	-0.000982793	0.0186865
29329	-0.000811126	0.018416
29368	-0.000982793	0.0181976
29407	-0.000753903	0.0178882
29446	-0.0008302	0.01783
29485	-0.0008302	0.0176122
29524	-0.000811126	0.0173057
29563	-0.000715755	0.0171567
29602	-0.000772977	0.0171122
29641	-0.000734829	0.0168124
29680	-0.000734829	0.0166994
29719	-0.000887422	0.0164494
29758	-0.000715755	0.0163656
29797	-0.000696681	0.0161943
29836	-0.000982793	0.0160168
29875	-0.000944644	0.0158279
29914	-0.000811126	0.0156454
29953	-0.000849274	0.0155293
29992	-0.00104001	0.0154159
30031	-0.00100187	0.0152587
30070	-0.000887422	0.0151139
30109	-0.000792052	0.0151218
30148	-0.000868348	0.0148432
30187	-0.000658533	0.014711
30226	-0.00102094	0.0145498
30265	-0.00100187	0.0143727
30304	-0.000944644	0.0143972
30343	-0.0008302	0.0142696
30382	-0.000963718	0.0140991
30421	-0.000811126	0.0139533
30460	-0.000887422	0.0138746
30499	-0.000734829	0.0137909
30538	-0.000906496	0.0136601
30577	-0.000811126	0.0135649
30616	-0.000696681	0.013727
30655	-0.000792052	0.0133667
30694	-0.000696681	0.0132968
30733	-0.000982793	0.0133929
30772	-0.000887422	0.0132769
30811	-0.000811126	0.0132022
30850	-0.000849274	0.0131286
30889	-0.0008302	0.0129155
30928	-0.000868348	0.0128348
30967	-0.000849274	0.0128898
31006	-0.000811126	0.0127508
31045	-0.000887422	0.0126009
31084	-0.000982793	0.0125065
31123	-0.000772977	0.0125254
31162	-0.000887422	0.0123462
31201	-0.000849274	0.0121732
31240	-0.000792052	0.0121719
31279	-0.000849274	0.012149
31318	-0.00092557	0.0121048
31357	-0.000792052	0.0120248
31396	-0.000868348	0.0119389
31435	-0.000734829	0.0118046
31474	-0.00092557	0.0118607
31513	-0.000620385	0.0116401
31552	-0.000772977	0.0117838
31591	-0.000772977	0.0115806
31630	-0.000906496	0.0115636
31669	-0.000753903	0.0115265
31708	-0.00092557	0.0113538
31747	-0.00102094	0.0113486
31786	-0.000792052	0.0112819
31825	-0.000887422	0.0112733
31864	-0.000906496	0.0111136
31903	-0.0008302	0.011096
31942	-0.000811126	0.0110547
31981	-0.0008302	0.0110244
32020	-0.000658533	0.0108824
32059	-0.000753903	0.0108714
32098	-0.000734829	0.0108331
32137	-0.000753903	0.0108722
32176	-0.000753903	0.0107914
32215	-0.00105909	0.010606
32254	-0.000658533	0.0106363
32293	-0.000811126	0.0105788
32332	-0.000868348	0.0105619
32371	-0.000849274	0.0106386
32410	-0.000772977	0.0104497
32449	-0.00111631	0.0103704
32488	-0.000696681	0.0103906
32527	-0.000772977	0.0103088
32566	-0.000658533	0.0102344
32605	-0.000887422	0.0101739
32644	-0.000963718	0.0101382
32683	-0.0008302	0.0101487
32722	-0.00102094	0.0100618
32761	-0.00100187	0.00999066
32800	-0.000906496	0.00998818
32839	-0.000982793	0.00991026
32878	-0.000849274	0.00989226
32917	-0.00092557	0.00986233
32956	-0.00105909	0.00973669
32995	-0.000734829	0.00977938
33034	-0.000734829	0.00977098
33073	-0.00109724	0.00970564
33112	-0.000944644	0.00961119
33151	-0.00102094	0.00966836
33190	-0.000772977	0.00954114
33229	-0.00092557	0.00954666
33268	-0.000734829	0.00950361
33307	-0.000753903	0.00951558
33346	-0.000868348	0.00951976
33385	-0.000792052	0.00940233
33424	-0.00102094	0.00933364
33463	-0.000849274	0.00922867
33502	-0.0008302	0.00924433
33541	-0.000753903	0.0091723
33580	-0.000811126	0.00925462
33619	-0.000792052	0.00915803
33658	-0.000849274	0.00925088
33697	-0.000868348	0.00910274
33736	-0.000963718	0.0090807
33775	-0.000811126	0.00902061
33814	-0.000868348	0.00909657
33853	-0.000753903	0.00902385
33892	-0.000811126	0.00900065
33931	-0.000639459	0.00898253
33970	-0.000887422	0.00887387
34009	-0.000868348	0.00885818
34048	-0.000753903	0.00891234
34087	-0.000792052	0.00887152
34126	-0.000792052	0.00881178
34165	-0.000849274	0.00884036
34204	-0.000906496	0.0087342
34243	-0.000811126	0.00860863
34282	-0.000982793	0.00880761
34321	-0.000849274	0.00861392
34360	-0.00102094	0.00865426
34399	-0.00102094	0.00857326
34438	-0.000811126	0.00856086
34477	-0.000982793	0.00854604
34516	-0.000792052	0.00851783
34555	-0.000753903	0.00841902
34594	-0.000849274	0.00843887
34633	-0.000811126	0.00828759
34672	-0.000696681	0.00844649
34711	-0.000753903	0.00848861
34750	-0.000658533	0.00836418
34789	-0.000696681	0.00831476
34828	-0.000849274	0.00828289
34867	-0.0008302	0.00830554
34906	-0.000849274	0.00816724
34945	-0.000772977	0.00813576
34984	-0.000811126	0.008156
35023	-0.000715755	0.00819658
35062	-0.000944644	0.00805671
35101	-0.0008302	0.0081844
35140	-0.000753903	0.00808447
35179	-0.000849274	0.00807621
35218	-0.000868348	0.00806425
35257	-0.00102094	0.00801869
35296	-0.000906496	0.00793714
35335	-0.000849274	0.00795494
35374	-0.000906496	0.00797298
35413	-0.000772977	0.00785917
35452	-0.000696681	0.00788719
35491	-0.000601311	0.00786447
35530	-0.0008302	0.00790738
35569	-0.000849274	0.00781485
35608	-0.000792052	0.00776787
35647	-0.000868348	0.00777125
35686	-0.000811126	0.0078109
35725	-0.00092557	0.00781821
35764	-0.000887422	0.00769522
35803	-0.000887422	0.00754097
35842	-0.000734829	0.0076758
35881	-0.000887422	0.00757481
35920	-0.000811126	0.00760084
35959	-0.000849274	0.00755044
35998	-0.000906496	0.00751628
36037	-0.00100187	0.00757893
36076	-0.000734829	0.00746619
36115	-0.00092557	0.00751052
36154	-0.000906496	0.007365
36193	-0.000963718	0.00755677
36232	-0.000944644	0.00745288
36271	-0.000696681	0.00743919
36310	-0.000753903	0.00737739
36349	-0.000963718	0.00728444
36388	-0.000963718	0.00744204
36427	-0.000868348	0.00743511
36466	-0.000772977	0.00734408
36505	-0.000792052	0.00725339
36544	-0.000944644	0.00732096
36583	-0.00092557	0.00728826
36622	-0.000868348	0.0071971
36661	-0.00100187	0.00728278
36700	-0.0008302	0.00715109
36739	-0.000677607	0.00728568
36778	-0.000963718	0.00723248
36817	-0.000772977	0.0071282
36856	-0.000772977	0.00718584
36895	-0.000849274	0.00716909
36934	-0.000811126	0.00713851
36973	-0.000868348	0.00706596
37012	-0.000677607	0.00704524
37051	-0.000753903	0.00713673
37090	-0.000887422	0.00696462
37129	-0.000906496	0.00696292
37168	-0.000906496	0.00691922
37207	-0.000772977	0.0070506
37246	-0.0008302	0.00694156
37285	-0.0008302	0.00700146
37324	-0.000715755	0.00691068
37363	-0.000906496	0.00700581
37402	-0.000849274	0.00693015
37441	-0.000868348	0.00693821
37480	-0.000868348	0.00685407
37519	-0.000849274	0.00677054
37558	-0.000982793	0.00683969
37597	-0.000944644	0.0067762
37636	-0.000944644	0.00681548
37675	-0.000849274	0.00667148
37714	-0.00092557	0.00680162
37753	-0.00100187	0.00672743
37792	-0.000868348	0.00676341
37831	-0.000792052	0.00663992
37870	-0.000887422	0.00662552
37909	-0.0008302	0.00673212
37948	-0.000906496	0.00661045
37987	-0.000582236	0.00666505
38026	-0.000811126	0.00658522
38065	-0.000715755	0.00665023
38104	-0.000963718	0.00664188
38143	-0.000944644	0.0066332
38182	-0.000944644	0.00651315
38221	-0.000944644	0.00662428
38260	-0.000811126	0.00655442
38299	-0.000772977	0.00656335
38338	-0.000772977	0.00633775
38377	-0.00105909	0.00642115
38416	-0.000868348	0.00648835
38455	-0.00092557	0.00645218
38494	-0.000792052	0.00646446
38533	-0.000715755	0.00651644
38572	-0.000906496	0.00640919
38611	-0.000868348	0.00635646
38650	-0.00104001	0.00639672
38689	-0.00102094	0.0063166
38728	-0.000849274	0.00648627
38767	-0.000982793	0.00646137
38806	-0.000944644	0.00633798
38845	-0.000849274	0.00633491
38884	-0.000677607	0.00637202
38923	-0.000906496	0.00632862
38962	-0.00092557	0.00623145
39001	-0.000849274	0.00634958
39040	-0.000677607	0.00621568
39079	-0.000906496	0.00620914
39118	-0.000887422	0.00624019
39157	-0.000963718	0.0061815
39196	-0.000849274	0.00617523
39235	-0.000792052	0.00619864
39274	-0.000849274	0.00618883
39313	-0.0008302	0.00621991
39352	-0.000906496	0.00611502
39391	-0.000849274	0.00616563
39430	-0.000715755	0.00621173
39469	-0.000753903	0.00602327
39508	-0.000849274	0.00611325
39547	-0.000658533	0.00611207
39586	-0.000792052	0.00610112
39625	-2.00092	-10.2033
39664	-2.001	-6.40359
39703	-2.00083	-5.74236
39742	-2.00081	-5.53996
39781	-2.00088	-5.48272
39820	-2.00092	-5.49695
39859	-2.00071	-5.53512
39898	-2.0009	-5.58059
39937	-2.0009	-5.64448
39976	-2.00067	-5.7308
40015	-2.0009	-5.79912
40054	-2.00096	-5.87136
40093	-2.00094	-5.93107
40132	-2.00083	-5.99728
40171	-2.0009	-6.05897
40210	-2.00079	-6.11841
40249	-2.00071	-6.17613
40288	-2.00092	-6.23382
40327	-2.00098	-6.28854
40366	-2.00085	-6.34063
40405	-2.00075	-6.38946
40444	-2.00086	-6.44036
40483	-2.00092	-6.48766
40522	-0.000677607	5.41174
40561	-0.000792052	1.75021
40600	-0.00100187	0.975115
40639	-0.000601311	0.627326
40678	-0.000811126	0.444666
40717	-0.000639459	0.339101
40756	-0.000849274	0.271098
40795	-0.000982793	0.224608
40834	-0.00092557	0.191067
40873	-0.000811126	0.165929
40912	-0.000944644	0.1466
40951	-0.000792052	0.131094
40990	-0.000849274	0.118634
41029	-0.00102094	0.108458
41068	-0.000811126	0.0999694
41107	-0.000887422	0.0925697
41146	-0.00092557	0.0862613
41185	-0.000887422	0.0806542
41224	-0.00105909	0.0760888
41263	-0.000868348	0.0718353
41302	-0.0008302	0.0680455
41341	-0.0008302	0.0647127
41380	-0.00105909	0.0614752
41419	-0.000906496	0.0589995
41458	-0.000944644	0.0563758
41497	-0.000772977	0.0541581
41536	-0.000963718	0.0520267
41575	-0.000868348	0.0501197
41614	-0.0008302	0.0482164
41653	-0.000963718	0.0465451
41692	-0.000811126	0.044972
41731	-0.000792052	0.043582
41770	-0.000868348	0.0422212
41809	-0.000811126	0.0409917
41848	-0.00100187	0.039836
41887	-0.000753903	0.0386657
41926	-0.000715755	0.0376855
41965	-0.0008302	0.036685
42004	-0.000887422	0.0357828
42043	-0.000906496	0.0348945
42082	-0.00092557	0.0340725
42121	-0.000601311	0.0332789
42160	-0.000906496	0.0325512
42199	-0.000811126	0.0317684
42238	-0.000906496	0.031116
42277	-0.000677607	0.0304764
42316	-0.000944644	0.0298368
42355	-0.000944644	0.0292291
42394	-0.00107816	0.0286778
42433	-0.000849274	0.0281612
42472	-0.000811126	0.0276142
42511	-0.0008302	0.0271479
42550	-0.000715755	0.0265622
42589	-0.000868348	0.0262003
42628	-0.000753903	0.025802
42667	-0.000982793	0.0253326
42706	-0.000658533	0.024867
42745	-0.000868348	0.0245852
42784	-0.000753903	0.0241069
42823	-0.000849274	0.0237513
42862	-0.000906496	0.0234183
42901	-0.000811126	0.0230832
42940	-0.000639459	0.0227653
42979	-0.000696681	0.0224463
43018	-0.0008302	0.0221407
43057	-0.0008302	0.021772
43096	-0.0008302	0.0214887
43135	-0.000792052	0.0212168
43174	-0.000868348	0.0209397
43213	-0.00092557	0.0204352
43252	-0.00092557	0.0211341
43291	-0.000849274	0.0208508
43330	-0.000887422	0.0205415
43369	-0.000906496	0.0202478
43408	-0.000753903	0.0200668
43447	-0.000849274	0.0198222
43486	-0.000868348	0.0195135
43525	-0.000887422	0.0192328
43564	-0.000887422	0.0190597
43603	-0.000811126	0.018908
43642	-0.000906496	0.0185398
43681	-0.000811126	0.0183084
43720	-0.000696681	0.0180847
43759	-0.0008302	0.0179165
43798	-0.000887422	0.0176232
43837	-0.000811126	0.0174464
43876	-0.00092557	0.0172887
43915	-0.00092557	0.0169893
43954	-0.000753903	0.0169372
43993	-0.00092557	0.0167188
44032	-0.000944644	0.0165832
44071	-0.000868348	0.0163857
44110	-0.000811126	0.0163259
44149	-0.000792052	0.016155
44188	-0.000963718	0.015952
44227	-0.000696681	0.0157534
44266	-0.000715755	0.0155844
44305	-0.000944644	0.0154762
44344	-0.0008302	0.0152881
44383	-0.00102094	0.0152036
44422	-0.000887422	0.0150907
44461	-0.000772977	0.014983
44500	-0.0008302	0.0147504
44539	-0.000753903	0.0147004
44578	-0.000868348	0.0145107
44617	-0.000753903	0.0144427
44656	-0.000734829	0.0142704
44695	-0.000792052	0.014207
44734	-0.000792052	0.0141031
44773	-0.0008302	0.0139908
44812	-0.000677607	0.0138645
44851	-0.000849274	0.0137372
44890	-0.000849274	0.0136057
44929	-0.000772977	0.0134788
44968	-0.000792052	0.0134214
45007	-0.000868348	0.0134805
45046	-0.000734829	0.0136372
45085	-0.000792052	0.0129784
45124	-0.000963718	0.013311
45163	-0.000792052	0.0132705
45202	-0.000734829	0.0132024
45241	-0.000753903	0.0131273
45280	-0.000772977	0.0129646
45319	-0.000887422	0.0128809
45358	-0.00102094	0.0128117
45397	-0.000677607	0.0127321
45436	-0.00092557	0.0126407
45475	-0.000906496	0.0125782
45514	-0.000849274	0.0125517
45553	-0.000696681	0.0123325
45592	-0.00092557	0.0122438
45631	-0.000868348	0.0123069
45670	-0.000887422	0.0120879
45709	-0.00102094	0.0120824
45748	-0.0008302	0.0119212
45787	-0.000792052	0.0118957
45826	-0.000887422	0.0118849
45865	-0.00092557	0.0117045
45904	-0.000811126	0.011824
45943	-0.000944644	0.0116374
45982	-0.000944644	0.0115975
46021	-0.000658533	0.0115815
46060	-0.0008302	0.0114503
46099	-0.000753903	0.0114201
46138	-0.000811126	0.0113276
46177	-0.000868348	0.0113243
46216	-0.00092557	0.0111996
46255	-0.000963718	0.0111828
46294	-0.000868348	0.011098
46333	-0.000811126	0.0110354
46372	-0.0008302	0.0109528
46411	-0.00100187	0.0109424
46450	-0.000772977	0.0108177
46489	-0.000849274	0.0108075
46528	-0.00092557	0.0107265
46567	-0.000772977	0.010721
46606	-0.0008302	0.0105992
46645	-0.00113539	0.0106625
46684	-0.000868348	0.0106489
46723	-0.000792052	0.0105691
46762	-0.000811126	0.0104171
46801	-0.000677607	0.0103868
46840	-0.0008302	0.010504
46879	-0.000792052	0.0103046
46918	-0.000734829	0.0102949
46957	-0.00092557	0.0102364
46996	-0.000887422	0.0101711
47035	-0.000658533	0.0101363
47074	-0.000792052	0.010019
47113	-0.0008302	0.00999968
47152	-0.000906496	0.0100115
47191	-0.0008302	0.0100232
47230	-0.000734829	0.00988238
47269	-0.000753903	0.00985211
47308	-0.000849274	0.0098226
47347	-0.000868348	0.00964407
47386	-0.000601311	0.00973204
47425	-0.000792052	0.00971068
47464	-0.000849274	0.00963489
47503	-0.000906496	0.00968551
47542	-0.000811126	0.0095619
47581	-0.000734829	0.00955078
47620	-0.000982793	0.00944355
47659	-0.000868348	0.00953637
47698	-0.0008302	0.00936028
47737	-0.000792052	0.00939638
47776	-0.000868348	0.00935746
47815	-0.00092557	0.00938647
47854	-0.000887422	0.00941695
47893	-0.000868348	0.00918338
47932	-0.000963718	0.00921315
47971	-0.000849274	0.00921074
48010	-0.000963718	0.00921791
48049	-0.000982793	0.00907286
48088	-0.000906496	0.00915919
48127	-0.000734829	0.00900926
48166	-0.000868348	0.0090787
48205	-0.00102094	0.00908754
48244	-0.000887422	0.00907186
48283	-0.00102094	0.00885409
48322	-0.000753903	0.00893365
48361	-0.000792052	0.00879963
48400	-0.000715755	0.00889564
48439	-0.000677607	0.00885448
48478	-0.000811126	0.00870956
48517	-0.0008302	0.00875229
48556	-0.000772977	0.00872954
48595	-0.000887422	0.00870068
48634	-0.0008302	0.00859026
48673	-0.000868348	0.00876723
48712	-0.000887422	0.00860719
48751	-0.000982793	0.00860766
48790	-0.00092557	0.00846291
48829	-0.000868348	0.00861956
48868	-0.000792052	0.00854891
48907	-0.00100187	0.00852503
48946	-0.000849274	0.00840263
48985	-0.000715755	0.00841985
49024	-0.000734829	0.00849933
49063	-0.000963718	0.00837314
49102	-0.000887422	0.00824511
49141	-0.00102094	0.00818378
49180	-0.00092557	0.00836094
49219	-0.000811126	0.00819083
49258	-0.000887422	0.00823409
49297	-0.000772977	0.008133
49336	-0.000868348	0.00819657
49375	-0.0008302	0.00810615
49414	-0.000696681	0.00811513
49453	-0.000677607	0.00800781
49492	-0.000696681	0.0081044
49531	-0.00100187	0.00805211
49570	-0.00100187	0.0080273
49609	-0.000887422	0.00798934
49648	-0.000620385	0.00789463
49687	-0.000677607	0.0079244
49726	-0.000944644	0.00790615
49765	-0.00104001	0.00797545
49804	-0.000544088	0.00782446
49843	-0.000772977	0.00786893
49882	-0.00092557	0.00782737
49921	-0.000868348	0.0078056
49960	-0.000963718	0.00768035
49999	-0.000868348	0.00766252
50038	-0.000715755	0.00772867
50077	-0.000849274	0.00771749
50116	-0.000715755	0.00760615
50155	-0.000982793	0.00763724
50194	-0.00100187	0.00764647
50233	-0.000772977	0.00752809
50272	-0.000811126	0.00754829
50311	-0.000753903	0.00753705
50350	-0.00100187	0.00749586
50389	-0.000849274	0.00753866
50428	-0.000734829	0.00735804
50467	-0.000792052	0.00744293
50506	-0.000963718	0.00745092
50545	-0.000887422	0.00744467
50584	-0.000906496	0.00726624
50623	-0.000811126	0.00737587
50662	-0.000658533	0.0073847
50701	-0.000906496	0.00734709
50740	-0.000811126	0.00735128
50779	-0.000753903	0.00729542
50818	-0.0008302	0.0072126
50857	-0.000753903	0.00732048
50896	-0.00100187	0.00725138
50935	-0.000868348	0.00723355
50974	-0.000868348	0.00717731
51013	-0.000868348	0.00717239
51052	-0.000677607	0.00719276
51091	-0.000868348	0.00708536
51130	-0.000792052	0.00718078
51169	-0.000792052	0.0070527
51208	-0.000944644	0.00713979
51247	-0.000696681	0.00706241
51286	-0.000982793	0.00702398
51325	-0.000792052	0.00692922
51364	-0.000601311	0.00699842
51403	-0.0008302	0.00703519
51442	-0.000963718	0.00690824
51481	-0.000887422	0.00688443
51520	-0.000887422	0.00698239
51559	-0.000887422	0.00695716
51598	-0.00092557	0.00687531
51637	-0.000906496	0.00685141
51676	-0.000639459	0.00682964
51715	-0.000849274	0.00686094
51754	-0.000772977	0.00688399
51793	-0.000849274	0.00684033
51832	-0.000887422	0.0067967
51871	-0.000887422	0.0068298
51910	-0.0008302	0.00687031
51949	-0.00107816	0.00681597
51988	-0.00100187	0.00676871
52027	-0.000849274	0.00686342
52066	-0.000944644	0.00669567
52105	-0.000868348	0.0066671
52144	-0.0008302	0.00665551
52183	-0.00104001	0.0066415
52222	-0.00105909	0.00650223
52261	-0.000868348	0.00673017
52300	-0.00092557	0.00663763
52339	-0.000620385	0.00648711
52378	-0.000753903	0.00665462
52417	-0.000849274	0.00659077
52456	-0.000982793	0.00653646
52495	-0.000887422	0.00648358
52534	-0.0008302	0.00660954
52573	-0.000887422	0.00656013
52612	-0.000696681	0.0064649
52651	-0.00092557	0.00650968
52690	-0.000868348	0.00648399
52729	-0.000715755	0.00651652
52768	-0.000849274	0.00643514
52807	-0.000868348	0.00653703
52846	-0.000868348	0.00642079
52885	-0.000734829	0.00637829
52924	-0.000792052	0.00640826
52963	-0.00092557	0.00640446
53002	-0.000811126	0.00630871
53041	-0.000811126	0.00637663
53080	-0.000944644	0.00636286
53119	-0.000734829	0.0062609
53158	-0.000849274	0.00618813
53197	-0.000715755	0.00634465
53236	-0.00092557	0.00638555
53275	-0.000811126	0.00624244
53314	-0.00092557	0.0062951
53353	-0.000849274	0.00619988
53392	-0.000734829	0.00630294
53431	-0.000811126	0.00624418
53470	-0.000982793	0.00625012
53509	-0.000849274	0.00614139
53548	-0.000811126	0.00618739
53587	-0.000772977	0.00616897
53626	-0.000772977	0.00611995
53665	-0.000563162	0.00612331
53704	-0.000715755	0.00617343
53743	-0.00092557	0.00607532
53782	-0.000792052	0.00612588
53821	-0.000963718	0.00604086
53860	-0.000849274	0.00601826
53899	-0.000715755	0.00610514
53938	-0.000734829	0.00609384
53977	-0.000696681	0.00607576
54016	-2.00094	-13.2496
54055	-2.00083	-6.3832
54094	-2.00096	-5.62101
54133	-2.00065	-5.42048
54172	-2.00102	-5.37554
54211	-2.00081	-5.40983
54250	-2.00086	-5.45789
54289	-2.00086	-5.51678
54328	-2.00083	-5.59894
54367	-2.00088	-5.68674
54406	-2.00088	-5.76738
54445	-2.00083	-5.83975
54484	-2.00086	-5.91072
54523	-2.00106	-5.97949
54562	-2.001	-6.04924
54601	-2.00102	-6.11079
54640	-2.00067	-6.17251
54679	-2.001	-6.22543
54718	-2.00092	-6.27864
54757	-2.00106	-6.32802
54796	-2.00096	-6.38735
54835	-2.00085	-6.44143
54874	-2.0009	-6.49372
54913	-0.000887422	9.11618
54952	-0.0008302	2.02503
54991	-0.000849274	1.05398
55030	-0.000772977	0.652118
55069	-0.000906496	0.451203
55108	-0.000734829	0.338116
55147	-0.000887422	0.26745
55186	-0.0008302	0.219843
55225	-0.000963718	0.186105
55264	-0.000868348	0.160886
55303	-0.000696681	0.141577
55342	-0.000772977	0.126305
55381	-0.000811126	0.114116
55420	-0.000849274	0.104184
55459	-0.000696681	0.0956589
55498	-0.000792052	0.0885744
55537	-0.000734829	0.0824137
55576	-0.000887422	0.0773238
55615	-0.000944644	0.0725364
55654	-0.000734829	0.0684368
55693	-0.000982793	0.064745
55732	-0.000792052	0.0615022
55771	-0.000887422	0.058475
55810	-0.000906496	0.0558191
55849	-0.000944644	0.0534557
55888	-0.000811126	0.051296
55927	-0.000887422	0.0492913
55966	-0.000734829	0.0470067
56005	-0.000753903	0.0454928
56044	-0.000658533	0.0438019
56083	-0.0008302	0.0424628
56122	-0.000811126	0.040998
56161	-0.0008302	0.039755
56200	-0.000887422	0.0385774
56239	-0.000868348	0.0374801
56278	-0.000849274	0.0363896
56317	-0.000849274	0.0353975
56356	-0.000868348	0.0344239
56395	-0.00092557	0.0335229
56434	-0.000944644	0.0327608
56473	-0.000982793	0.0319513
56512	-0.00105909	0.0312483
56551	-0.000792052	0.0304831
56590	-0.000868348	0.0299336
56629	-0.000696681	0.029184
56668	-0.00092557	0.0286192
56707	-0.000734829	0.0279162
56746	-0.000811126	0.0274381
56785	-0.00100187	0.0268731
56824	-0.00102094	0.0263962
56863	-0.00100187	0.0259299
56902	-0.00092557	0.0254326
56941	-0.000753903	0.0249826
56980	-0.000906496	0.0245063
57019	-0.0008302	0.0242288
57058	-0.0008302	0.0236638
57097	-0.000715755	0.0233696
57136	-0.00092557	0.022974
57175	-0.000620385	0.0225592
57214	-0.000811126	0.0221235
57253	-0.000944644	0.021911
57292	-0.00104001	0.02161
57331	-0.000906496	0.0212761
57370	-0.0008302	0.0209815
57409	-0.000944644	0.020638
57448	-0.000753903	0.0204171
57487	-0.00092557	0.0201512
57526	-0.000811126	0.0198578
57565	-0.000944644	0.0195631
57600	-0.000887422	0.0194515