File: Data_23_Experiment/CA_264_C01.txt
time/s	Ewe/V	<I>/mA
1	1.49964	301.931
40	1.49951	13.3182
79	1.49943	10.5807
118	1.49949	11.2395
157	1.49953	16.7469
196	1.49955	24.4773
235	1.4997	29.3097
274	1.49957	30.7039
313	1.49959	29.8445
352	1.49949	28.2604
391	1.4994	26.2931
430	1.49955	24.1687
469	1.49959	22.3165
508	1.49955	20.7924
547	1.49957	19.5883
586	1.49955	18.5937
625	1.49962	17.7759
664	1.49945	17.0508
703	1.49955	16.4464
742	1.49955	15.8901
781	1.49968	15.3637
820	1.49943	14.8281
859	1.49949	14.3644
898	1.49953	13.9178
937	1.49951	13.4831
976	1.49964	13.0135
1015	1.49949	12.5725
1054	1.49957	12.1635
1093	1.49955	11.7345
1132	1.49957	11.2826
1171	1.49961	10.8033
1210	1.49959	10.3939
1249	1.49955	9.9662
1288	1.49955	9.54984
1327	1.49951	9.08476
1366	1.49955	8.72984
1405	1.49962	8.3701
1444	1.49947	8.03141
1483	1.49953	7.62062
1522	1.49957	7.30442
1561	1.49959	7.00989
1600	1.49949	6.72344
1639	1.49962	6.40855
1678	1.49966	6.09989
1717	1.49951	5.89029
1756	1.49953	5.64626
1795	1.49955	5.4177
1833.95	-0.000934964	-1.03994
1872.95	-0.000858668	-0.400149
1911.95	-0.000934964	-0.268496
1950.95	-0.000858668	-0.213295
1989.95	-0.000858668	-0.178734
2028.95	-0.00091589	-0.155801
2067.95	-0.000839594	-0.140543
2106.95	-0.000744223	-0.129606
2145.95	-0.000954038	-0.119417
2184.95	-0.00091589	-0.113481
2223.95	-0.000858668	-0.108336
2262.95	-0.000973113	-0.104064
2301.95	-0.000934964	-0.0995621
2340.95	-0.000954038	-0.0967859
2379.95	-0.000954038	-0.0944535
2418.95	-0.000877742	-0.0916764
2457.95	-0.000877742	-0.0891984
2496.95	-0.000877742	-0.0860939
2535.95	-0.000896816	-0.0850028
2574.95	-0.00082052	-0.0831216
2613.95	-0.00091589	-0.0816552
2652.95	-0.000954038	-0.0783144
2691.95	-0.00082052	-0.0772877
2730.95	-0.000896816	-0.0752755
2769.95	-0.00091589	-0.0742944
2808.95	-0.000896816	-0.0726183
2847.95	-0.000973113	-0.0716521
2886.95	-0.000858668	-0.0708091
2925.95	-0.000973113	-0.0704006
2964.95	-0.000973113	-0.0696932
3003.95	-0.00103033	-0.0677655
3042.95	-0.00101126	-0.067513
3081.95	-0.000858668	-0.0664759
3120.95	-0.00103033	-0.0658583
3159.95	-0.000973113	-0.0634892
3198.95	-0.000973113	-0.0635419
3237.95	-0.000934964	-0.0626786
3276.95	-0.000858668	-0.0623172
3315.95	-0.00106848	-0.0608435
3354.95	-0.000954038	-0.0600557
3393.95	-0.000896816	-0.0590038
3432.95	-0.000973113	-0.0574332
3471.95	-0.000934964	-0.0568723
3510.95	-0.000992187	-0.0560985
3549.95	-0.000973113	-0.0563364
3588.95	-0.000934964	-0.0552753
3627.95	-0.00082052	-0.0549763
3666.95	-0.00101126	-0.0533999
3705.95	-0.000877742	-0.0543764
3744.95	-0.000934964	-0.0540586
3783.95	-0.00101126	-0.0535703
3822.95	-0.000877742	-0.0517607
3861.95	-0.000973113	-0.0516903
3900.95	-0.000858668	-0.0515466
3939.95	-0.000858668	-0.0515591
3978.95	-0.00110663	-0.050246
4017.95	-0.000896816	-0.0485723
4056.95	-0.00104941	-0.0486418
4095.95	-0.000934964	-0.0480001
4134.95	-0.00101126	-0.0475418
4173.95	-0.000858668	-0.0454451
4212.95	-0.00103033	-0.0456923
4251.95	-0.000992187	-0.0445826
4290.95	-0.000973113	-0.0443395
4329.95	-0.000934964	-0.0427628
4368.95	-0.000954038	-0.0436274
4407.95	-0.000877742	-0.0434625
4446.95	-0.000896816	-0.0430006
4485.95	-0.000858668	-0.0421977
4524.95	-0.000954038	-0.0406735
4563.95	-0.00091589	-0.0405165
4602.95	-0.000858668	-0.040471
4641.95	-0.000801446	-0.0407359
4680.95	-0.000839594	-0.0388574
4719.95	-0.000934964	-0.0393805
4758.95	-0.000896816	-0.0390594
4797.95	-0.000992187	-0.0392753
4836.95	-0.00103033	-0.0373744
4875.95	-0.000839594	-0.0367549
4914.95	-0.00082052	-0.0358816
4953.95	-0.000839594	-0.035213
4992.95	-0.00101126	-0.0338417
5031.95	-0.000934964	-0.0324101
5070.95	-0.000782372	-0.0325162
5109.95	-0.00091589	-0.0318549
5148.95	-0.000954038	-0.031265
5187.95	-0.00082052	-0.0290971
5226.95	-0.000934964	-0.0294524
5265.95	-0.000839594	-0.0286712
5304.95	-0.000992187	-0.0282895
5343.95	-0.000896816	-0.0265205
5382.95	-0.000858668	-0.0264299
5421.95	-0.000877742	-0.0261149
5460.95	-0.00091589	-0.0258018
5499.95	-0.00091589	-0.024707
5538.95	-0.000992187	-0.0236098
5577.95	-0.000934964	-0.0237936
5616.95	-0.000954038	-0.0233495
5655.95	-0.00104941	-0.0228905
5694.95	-0.000973113	-0.0206313
5733.95	-0.000839594	-0.0210607
5772.95	-0.000782372	-0.0205283
5811.95	-0.000896816	-0.0205489
5850.95	-0.000954038	-0.0187729
5889.95	-0.00101126	-0.0191016
5928.95	-0.00106848	-0.0187899
5967.95	-0.00104941	-0.0183121
6006.95	-0.00101126	-0.00664566
6045.95	-0.000877742	-0.00766998
6084.95	-0.000954038	-0.00921001
6123.95	-0.000782372	-0.00973794
6162.95	-0.000954038	-0.0100404
6201.95	-0.00101126	-0.00902627
6240.95	-0.000973113	-0.0105652
6279.95	-0.000973113	-0.0102916
6318.95	-0.000934964	-0.0105264
6357.95	-0.000858668	-0.00890779
6396.95	-0.00108756	-0.00926961
6435.95	-0.000896816	-0.00952921
6474.95	-0.00091589	-0.00963933
6513.95	-0.000896816	-0.00883422
6552.95	-0.00082052	-0.00845492
6591.95	-0.00108756	-0.00913442
6630.95	-0.00104941	-0.00932328
6669.95	-0.000858668	-0.00941266
6708.95	-0.00101126	-0.00758895
6747.95	-0.00106848	-0.00815223
6786.95	-0.000973113	-0.00775766
6825.95	-0.000877742	-0.00788394
6864.95	-0.000896816	-0.00616378
6903.95	-0.000896816	-0.007068
6942.95	-0.000858668	-0.00682256
6981.95	-0.000973113	-0.00617031
7020.95	-0.000896816	-0.0050883
7059.95	-0.000858668	-0.00441467
7098.95	-0.000973113	-0.00479281
7137.95	-0.000992187	-0.00440273
7176.95	-0.000896816	-0.00803985
7215.95	-0.000934964	-0.00647483
7254.95	-0.00104941	-0.00746943
7293.95	-0.00091589	-0.00696272
7332.95	-0.00104941	-0.00680879
7371.95	-0.000877742	-0.00489539
7410.95	-0.00101126	-0.00557377
7449.95	-0.00091589	-0.00533675
7488.95	-0.000992187	-0.00560654
7527.95	-0.00091589	-0.00457564
7566.95	-0.000992187	-0.00419088
7605.95	-0.000934964	-0.00425506
7644.95	-0.000973113	-0.00383632
7683.95	-0.000858668	-0.00375562
7722.95	-0.00091589	-0.00223154
7761.95	-0.000877742	-0.00306586
7800.95	-0.000934964	-0.00311567
7839.95	-0.000763297	-0.00306537
7878.95	-0.000858668	-0.00124499
7917.95	-0.000934964	-0.00216372
7956.95	-0.00103033	-0.00211431
7995.95	-0.000954038	-0.00223646
8034.95	-0.000973113	-0.00116583
8073.95	-0.00101126	-0.000714119
8112.95	-0.000954038	-0.000681662
8151.95	-0.000973113	-0.00031279
8190.95	-0.000934964	-0.000212697
8229.95	-0.000934964	0.000874708
8268.95	-0.000858668	9.14343e-05
8307.95	-0.00101126	0.000557422
8346.95	-0.00103033	0.000712054
8385.95	-0.00091589	0.00271578
8424.95	-0.000934964	0.00150433
8463.95	-0.000954038	0.00132425
8502.95	-0.000839594	0.00106291
8541.95	-0.00082052	0.00210431
8580.95	-0.000744223	0.00196336
8619.95	-0.000992187	0.00156838
8658.95	-0.000877742	0.00169967
8697.95	-0.00101126	0.00220073
8736.95	-0.00082052	0.00329706
8775.95	-0.000801446	0.00230741
8814.95	-0.00103033	0.00267015
8853.95	-0.00082052	0.00259192
8892.95	-0.000992187	0.00458498
8931.95	-0.00112571	0.00344903
8970.95	-0.000934964	0.00374094
9009.95	-0.000973113	0.00341021
9048.95	-0.00108756	0.00474829
9087.95	-0.000839594	0.0048524
9126.95	-0.000954038	0.00465041
9165.95	-0.00101126	0.00459763
9204.95	-0.000954038	0.00485032
9243.95	-0.000801446	0.00600927
9282.95	-0.00106848	0.0051175
9321.95	-0.000992187	0.00522965
9360.95	-0.000934964	0.0053315
9399.95	-0.000858668	0.00706026
9438.95	-0.00091589	0.00629938
9477.95	-0.000992187	0.00631731
9516.95	-0.000877742	0.0062514
9555.95	-0.000992187	0.00723498
9594.95	-0.00091589	0.00701709
9633.95	-0.000954038	0.00652768
9672.95	-0.000992187	0.00652236
9711.95	-0.000782372	0.00716232
9750.95	-0.000877742	0.00825539
9789.95	-0.00091589	0.00765202
9828.95	-0.000973113	0.00817182
9867.95	-0.000992187	0.00783725
9906.95	-0.000992187	0.0093024
9945.95	-0.000992187	0.00793869
9984.95	-0.00091589	0.00780068
10024	-0.000934964	0.0079011
10063	-0.000973113	0.00908037
10102	-0.00108756	0.00901587
10141	-0.000858668	0.00896042
10180	-0.00091589	0.00901069
10219	-0.000896816	0.00916878
10258	-0.00106848	0.0102707
10297	-0.000934964	0.00993372
10336	-0.000858668	0.00989638
10375	-0.000992187	0.0097621
10414	-0.00108756	0.0111958
10453	-0.000973113	0.0101638
10492	-0.000934964	0.0101259
10531	-0.000934964	0.0100089
10570	-0.00101126	0.0111475
10609	-0.000973113	0.0107187
10648	-0.000934964	0.0106115
10687	-0.000934964	0.0105232
10726	-0.000934964	0.0108925
10765	-0.000954038	0.0115751
10804	-2.00103	-98.0436
10843	-2.00099	-48.1302
10882	-2.00093	-31.2222
10921	-2.00087	-23.0336
10960	-2.00082	-17.7214
10999	-2.00099	-14.1527
11038	-2.00093	-11.7474
11077	-2.00091	-10.1072
11116	-2.00093	-8.75477
11155	-2.00093	-7.72265
11194	-2.00099	-6.94144
11233	-2.00097	-6.30831
11272	-2.00101	-5.80614
11311	-2.00105	-5.3537
11350	-2.00097	-5.01956
11389	-2.0008	-4.70035
11428	-2.00089	-4.45566
11467	-2.00093	-4.25335
11506	-2.00085	-4.01831
11545	-2.00099	-3.82845
11584	-2.00091	-3.68962
11623	-2.00089	-3.53416
11662	-2.00103	-3.39216
11701	-0.000858668	206.746
11740	-0.00103033	1.93009
11779	-0.00108756	0.926016
11818	-0.00101126	0.652456
11857	-0.000801446	0.531223
11896	-0.000934964	0.457636
11935	-0.00091589	0.416878
11974	-0.000839594	0.377076
12013	-0.000973113	0.3506
12052	-0.00103033	0.327877
12091	-0.000877742	0.314605
12130	-0.000839594	0.297359
12169	-0.000973113	0.283471
12208	-0.00091589	0.2713
12247	-0.00108756	0.262642
12286	-0.000954038	0.254838
12325	-0.000896816	0.244736
12364	-0.000992187	0.237084
12403	-0.000934964	0.230331
12442	-0.000706075	0.227797
12481	-0.00091589	0.219025
12520	-0.00104941	0.213908
12559	-0.000973113	0.208249
12598	-0.000992187	0.207156
12637	-0.000858668	0.201118
12676	-0.000896816	0.196602
12715	-0.00091589	0.192247
12754	-0.000973113	0.190291
12793	-0.000973113	0.187406
12832	-0.000782372	0.182902
12871	-0.000934964	0.180221
12910	-0.000858668	0.177302
12949	-0.00082052	0.177412
12988	-0.000896816	0.172744
13027	-0.000954038	0.170523
13066	-0.000801446	0.16748
13105	-0.000992187	0.168123
13144	-0.000877742	0.164398
13183	-0.000954038	0.162114
13222	-0.000954038	0.159747
13261	-0.00103033	0.159314
13300	-0.00091589	0.157983
13339	-0.00082052	0.155034
13378	-0.000858668	0.153265
13417	-0.000934964	0.151766
13456	-0.000934964	0.15254
13495	-0.000934964	0.148939
13534	-0.00091589	0.14783
13573	-0.000801446	0.145876
13612	-0.000801446	0.14719
13651	-0.000858668	0.144401
13690	-0.000858668	0.142799
13729	-0.000877742	0.141348
13768	-0.000896816	0.141366
13807	-0.000839594	0.140242
13846	-0.000877742	0.138297
13885	-0.000839594	0.137046
13924	-0.000782372	0.135952
13963	-0.000934964	0.13691
14002	-0.000992187	0.134478
14041	-0.000954038	0.133703
14080	-0.000839594	0.1321
14119	-0.000954038	0.133559
14158	-0.000954038	0.131159
14197	-0.000839594	0.129951
14236	-0.000877742	0.128849
14275	-0.000934964	0.129394
14314	-0.00103033	0.128353
14353	-0.000954038	0.126881
14392	-0.000782372	0.125975
14431	1.49957	29.3031
14470	1.49968	19.7963
14509	1.4994	13.8904
14548	1.49962	11.3817
14587	1.49955	10.1345
14626	1.49943	9.29811
14665	1.49955	8.7746
14704	1.49957	8.54447
14743	1.49961	8.39179
14782	1.49947	8.24999
14821	1.49947	8.0221
14860	1.49964	8.01654
14899	1.49943	7.98489
14938	1.49955	7.96351
14977	1.49951	7.7815
15016	1.49945	7.74172
15055	1.49947	7.71211
15094	1.49959	7.69733
15133	1.49959	7.55108
15172	1.49959	7.43736
15211	1.49949	7.40101
15250	1.49947	7.35024
15289	1.49968	7.25017
15328	1.49941	7.05881
15367	1.49957	7.01089
15406	1.49959	6.92967
15445	1.49953	6.84984
15484	1.49943	6.62643
15523	1.49957	6.54659
15562	1.49949	6.45838
15601	1.49945	6.39105
15640	1.4997	6.17884
15679	1.49955	6.04703
15718	1.49964	5.94993
15757	1.49955	5.83924
15796	1.49941	5.67924
15835	1.49949	5.47155
15874	1.49953	5.37592
15913	1.49964	5.24923
15952	1.49945	5.10907
15991	1.49968	4.85172
16030	1.49951	4.72101
16069	1.49964	4.58842
16108	1.49947	4.48714
16147	1.49957	4.25312
16186	1.4994	4.09263
16225	-0.000839594	-1.25364
16264	-0.00101126	-0.437021
16303	-0.000877742	-0.263468
16342	-0.000934964	-0.188867
16381	-0.00082052	-0.145045
16420	-0.00106848	-0.117485
16459	-0.000973113	-0.0994714
16498	-0.000896816	-0.0887215
16537	-0.00104941	-0.0784017
16576	-0.000992187	-0.0713185
16615	-0.000973113	-0.0660599
16654	-0.000896816	-0.0625736
16693	-0.000934964	-0.0592587
16732	-0.000992187	-0.0567837
16771	-0.000954038	-0.0549201
16810	-0.000954038	-0.0530735
16849	-0.000896816	-0.0522627
16888	-0.00104941	-0.0510462
16927	-0.000858668	-0.0502542
16966	-0.000973113	-0.0493829
17005	-0.000877742	-0.0490617
17044	-0.00106848	-0.0486189
17083	-0.000896816	-0.0481514
17122	-0.000896816	-0.0477639
17161	-0.000934964	-0.0470257
17200	-0.000839594	-0.0470143
17239	-0.000934964	-0.0466178
17278	-0.000992187	-0.046542
17317	-0.000992187	-0.045605
17356	-0.000896816	-0.0457322
17395	-0.000934964	-0.0452908
17434	-0.000954038	-0.0452291
17473	-0.000896816	-0.044754
17512	-0.000992187	-0.0442066
17551	-0.000839594	-0.0441069
17590	-0.000839594	-0.0439163
17629	-0.000934964	-0.0435484
17668	-0.000896816	-0.0427911
17707	-0.000858668	-0.042677
17746	-0.000896816	-0.0423817
17785	-0.000839594	-0.0421526
17824	-0.000973113	-0.0451002
17863	-0.000896816	-0.0449936
17902	-0.000858668	-0.0448037
17941	-0.000954038	-0.0448137
17980	-0.000934964	-0.0439676
18019	-0.000954038	-0.0435853
18058	-0.000858668	-0.0433751
18097	-0.000744223	-0.0430948
18136	-0.000934964	-0.0429557
18175	-0.000858668	-0.0420549
18214	-0.000858668	-0.041956
18253	-0.00106848	-0.0416106
18292	-0.000858668	-0.0414252
18331	-0.00082052	-0.0404374
18370	-0.000687001	-0.0403432
18409	-0.00101126	-0.0399821
18448	-0.000839594	-0.0397244
18487	-0.000954038	-0.0391442
18526	-0.00091589	-0.0385851
18565	-0.00091589	-0.0383708
18604	-0.000896816	-0.0379998
18643	-0.000992187	-0.0375879
18682	-0.00091589	-0.0365704
18721	-0.000801446	-0.0365242
18760	-0.00103033	-0.0360884
18799	-0.00104941	-0.0356537
18838	-0.000934964	-0.0344377
18877	-0.000858668	-0.0343254
18916	-0.00082052	-0.0337333
18955	-0.000877742	-0.0333711
18994	-0.000934964	-0.0325992
19033	-0.000782372	-0.031976
19072	-0.000934964	-0.0318224
19111	-0.00104941	-0.0312803
19150	-0.00101126	-0.0311424
19189	-0.000801446	-0.029917
19228	-0.000782372	-0.0297522
19267	-0.000801446	-0.0295755
19306	-0.000858668	-0.0293517
19345	-0.00082052	-0.0283831
19384	-0.000934964	-0.028561
19423	-0.00082052	-0.0283062
19462	-0.000858668	-0.0282359
19501	-0.000839594	-0.0276677
19540	-0.000973113	-0.0271837
19579	-0.000934964	-0.0270063
19618	-0.000839594	-0.0266895
19657	-0.000782372	-0.0264157
19696	-0.000782372	-0.0257827
19735	-0.000954038	-0.0257652
19774	-0.00082052	-0.0254069
19813	-0.000877742	-0.025135
19852	-0.00091589	-0.0239588
19891	-0.00091589	-0.0241718
19930	-0.000973113	-0.0237644
19969	-0.00091589	-0.0236931
20008	-0.000858668	-0.0227903
20047	-0.000896816	-0.0224469
20086	-0.000934964	-0.0222313
20125	-0.000896816	-0.0221479
20164	-0.000973113	-0.0217212
20203	-0.000763297	-0.0209316
20242	-0.00091589	-0.0208623
20281	-0.000782372	-0.0206915
20320	-0.000896816	-0.0204651
20359	-0.00101126	-0.0192578
20398	-0.000858668	-0.0197271
20437	-0.000934964	-0.019429
20476	-0.000877742	-0.0192949
20515	-0.000801446	-0.0184098
20554	-0.00091589	-0.0183783
20593	-0.000858668	-0.0181151
20632	-0.00091589	-0.0180051
20671	-0.000877742	-0.0175334
20710	-0.000896816	-0.0167902
20749	-0.00091589	-0.0167793
20788	-0.00101126	-0.0165374
20827	-0.000973113	-0.0163681
20866	-0.00091589	-0.0153744
20905	-0.000973113	-0.0154831
20944	-0.00091589	-0.0152963
20983	-0.00091589	-0.015316
21022	-0.000801446	-0.0143545
21061	-0.00082052	-0.0144376
21100	-0.000877742	-0.0142469
21139	-0.000896816	-0.0140859
21178	-0.000858668	-0.0134741
21217	-0.000744223	-0.0128273
21256	-0.000896816	-0.0130875
21295	-0.000801446	-0.0127322
21334	-0.000839594	-0.012644
21373	-0.00091589	-0.0114891
21412	-0.000973113	-0.0118661
21451	-0.000934964	-0.0118205
21490	-0.000954038	-0.0116542
21529	-0.000973113	-0.0107377
21568	-0.00082052	-0.0108581
21607	-0.000934964	-0.0106246
21646	-0.000954038	-0.0105051
21685	-0.000954038	-0.0101353
21724	-0.000954038	-0.00935444
21763	-0.000954038	-0.00978781
21802	-0.000877742	-0.00956537
21841	-0.000954038	-0.00936661
21880	-0.000954038	-0.00830158
21919	-0.00091589	-0.00868327
21958	-0.000801446	-0.00852773
21997	-0.00101126	-0.00866454
22036	-0.000858668	-0.00754441
22075	-0.000896816	-0.00770862
22114	-0.000973113	-0.0076057
22153	-0.00091589	-0.0075206
22192	-0.000858668	-0.00697659
22231	-0.000877742	-0.0065302
22270	-0.00091589	-0.00658698
22309	-0.000744223	-0.00650805
22348	-0.00091589	-0.00631489
22387	-0.000839594	-0.00532589
22426	-0.000954038	-0.00585243
22465	-0.000992187	-0.00561203
22504	-0.000858668	0.0018472
22543	-0.00101126	0.00156541
22582	-0.000877742	0.000753063
22621	-0.000858668	0.000585432
22660	-0.00108756	0.000261905
22699	-0.00103033	0.000857633
22738	-0.000896816	0.00100318
22777	-0.000877742	0.000796133
22816	-0.000877742	0.000757697
22855	-0.000954038	0.000950176
22894	-0.000954038	0.00186113
22933	-0.000877742	0.00146574
22972	-0.000934964	0.00165922
23011	-0.00106848	0.00170913
23050	-0.000858668	0.00260234
23089	-0.00101126	0.00234941
23128	-0.000801446	0.00241651
23167	-0.000858668	0.00236766
23206	-0.00103033	0.00303628
23245	-0.000896816	0.00330574
23284	-0.000839594	0.00321525
23323	-0.000934964	0.00332781
23362	-0.000877742	0.0033985
23401	-0.00091589	0.00417522
23440	-0.000934964	0.00392242
23479	-0.000801446	0.00412773
23518	-0.000896816	0.00402188
23557	-0.000954038	0.00504911
23596	-0.00101126	0.00467409
23635	-0.00082052	0.00480375
23674	-0.00110663	0.00474291
23713	-0.00103033	0.0052768
23752	-0.000839594	0.00529469
23791	-0.000954038	0.0053095
23830	-0.000801446	0.00539556
23869	-0.000973113	0.00554193
23908	-0.000782372	0.00634631
23947	-0.000858668	0.00598776
23986	-0.000934964	0.00619531
24025	-0.000858668	0.00610421
24064	-0.000992187	0.00690727
24103	-0.000954038	0.00648041
24142	-0.00114478	0.00663014
24181	-0.000992187	0.00668226
24220	-0.000896816	0.0072696
24259	-0.000877742	0.00751958
24298	-0.000782372	0.00732184
24337	-0.00101126	0.00251632
24376	-0.000934964	0.0027382
24415	-0.000896816	0.00337487
24454	-0.00091589	0.00310172
24493	-0.000877742	0.00311531
24532	-0.000839594	0.00308774
24571	-0.000877742	0.00402201
24610	-0.00104941	0.00357419
24649	-0.000973113	0.00380516
24688	-0.000839594	0.00366972
24727	-0.000782372	0.00431073
24766	-0.00091589	0.00435645
24805	-0.00091589	0.00429403
24844	-0.000896816	0.0043572
24883	-0.000973113	0.00449213
24922	-0.000877742	0.00519206
24961	-0.00104941	0.00478665
25000	-0.00101126	0.00486574
25039	-0.000839594	0.00480618
25078	-0.000934964	0.00585318
25117	-0.000954038	0.00539183
25156	-0.000934964	0.00532293
25195	-0.000992187	0.00542488
25234	-2.00099	-37.9695
25273	-2.00084	-22.0061
25312	-2.00095	-15.138
25351	-2.00091	-11.532
25390	-2.00099	-9.31993
25429	-2.00089	-7.9983
25468	-2.00095	-6.82998
25507	-2.00097	-6.02753
25546	-2.00084	-5.39906
25585	-2.00078	-4.9733
25624	-2.00091	-4.54578
25663	-2.00089	-4.21995
25702	-2.00091	-3.96261
25741	-2.00097	-3.72559
25780	-2.00085	-3.52461
25819	-2.00089	-3.38953
25858	-2.00089	-3.19346
25897	-2.00089	-3.05804
25936	-2.00093	-2.99172
25975	-2.00093	-2.83728
26014	-2.00091	-2.73806
26053	-2.00087	-2.63997
26092	-2.00085	-2.60862
26131	-0.00103033	2.8844
26170	-0.000763297	1.0715
26209	-0.000801446	0.676605
26248	-0.000839594	0.522697
26287	-0.000992187	0.432462
26326	-0.000954038	0.375777
26365	-0.00101126	0.337453
26404	-0.000973113	0.31023
26443	-0.00103033	0.291017
26482	-0.000877742	0.27055
26521	-0.00091589	0.255421
26560	-0.000973113	0.24216
26599	-0.000973113	0.234864
26638	-0.00082052	0.223047
26677	-0.00114478	0.214202
26716	-0.000877742	0.205711
26755	-0.00101126	0.200795
26794	-0.000954038	0.193695
26833	-0.000934964	0.186833
26872	-0.00101126	0.18106
26911	-0.000763297	0.17661
26950	-0.000858668	0.173753
26989	-0.000992187	0.167592
27028	-0.000839594	0.163432
27067	-0.000877742	0.159341
27106	-0.000992187	0.158631
27145	-0.000992187	0.15339
27184	-0.00091589	0.15017
27223	-0.00082052	0.146575
27262	-0.000839594	0.145546
27301	-0.000954038	0.142163
27340	-0.000858668	0.138951
27379	-0.000858668	0.136534
27418	-0.00091589	0.134726
27457	-0.00101126	0.133834
27496	-0.000839594	0.13055
27535	-0.00103033	0.128473
27574	-0.000896816	0.126482
27613	-0.000954038	0.127019
27652	-0.000801446	0.123586
27691	-0.000858668	0.121901
27730	-0.00106848	0.119751
27769	-0.00091589	0.119705
27808	-0.00108756	0.117861
27847	-0.000763297	0.11615
27886	-0.00091589	0.114494
27925	-0.00082052	0.113671
27964	-0.00082052	0.113384
28003	-0.000896816	0.111126
28042	-0.000896816	0.109834
28081	-0.00091589	0.108415
28120	-0.000896816	0.109163
28159	-0.00101126	0.106848
28198	-0.00082052	0.10583
28237	-0.00091589	0.104378
28276	-0.000973113	0.104994
28315	-0.000954038	0.103285
28354	-0.000858668	0.102118
28393	-0.000934964	0.101186
28432	-0.00091589	0.100859
28471	-0.000992187	0.100825
28510	-0.00104941	0.0991282
28549	-0.000934964	0.0982517
28588	-0.00108756	0.0972702
28627	-0.000954038	0.0981344
28666	-0.00091589	0.0961196
28705	-0.000992187	0.0955315
28744	-0.000801446	0.0944114
28783	-0.00082052	0.095648
28822	1.49955	31.1087
28861	1.49949	14.3933
28900	1.49966	10.113
28939	1.49957	8.32746
28978	1.49955	7.24061
29017	1.4994	6.69181
29056	1.49959	6.31244
29095	1.49966	6.05841
29134	1.49947	5.72532
29173	1.49962	5.56312
29212	1.49966	5.42146
29251	1.49966	5.30161
29290	1.49955	5.12021
29329	1.49941	4.95886
29368	1.49962	4.85172
29407	1.49961	4.74199
29446	1.49964	4.61483
29485	1.49949	4.38204
29524	1.49953	4.3058
29563	1.49959	4.18563
29602	1.49955	4.08221
29641	1.49947	3.85408
29680	1.49962	3.70576
29719	1.49943	3.6297
29758	1.4994	3.5385
29797	1.49947	3.44848
29836	1.49955	3.30459
29875	1.49949	3.26838
29914	1.49966	3.19801
29953	1.49941	3.13889
29992	1.49941	2.97636
30031	1.49955	2.94281
30070	1.4997	2.89362
30109	1.49962	2.84558
30148	1.49957	2.71645
30187	1.49945	2.62666
30226	1.49945	2.59715
30265	1.49962	2.54806
30304	1.49968	2.46955
30343	1.49955	2.31022
30382	1.4997	2.28914
30421	1.49947	2.24614
30460	1.49945	2.21024
30499	1.49959	2.04896
30538	1.49961	2.01957
30577	1.49959	2.00636
30616	-0.00103033	-1.38937
30655	-0.000877742	-0.328113
30694	-0.00091589	-0.16537
30733	-0.000782372	-0.107041
30772	-0.000896816	-0.0770517
30811	-0.000877742	-0.058759
30850	-0.00101126	-0.046595
30889	-0.000839594	-0.0375608
30928	-0.000896816	-0.0308058
30967	-0.000782372	-0.0253255
31006	-0.000877742	-0.0214549
31045	-0.000858668	-0.0177955
31084	-0.000992187	-0.0149402
31123	-0.000896816	-0.0126281
31162	-0.00103033	-0.0107723
31201	-0.000973113	-0.014217
31240	-0.000973113	-0.0127514
31279	-0.000954038	-0.0116952
31318	-0.000839594	-0.00999835
31357	-0.000858668	-0.00974958
31396	-0.00082052	-0.00902144
31435	-0.000954038	-0.00853925
31474	-0.00104941	-0.00744238
31513	-0.000934964	-0.00723611
31552	-0.00101126	-0.00702124
31591	-0.00091589	-0.00654992
31630	-0.000782372	-0.00603452
31669	-0.000858668	-0.00528923
31708	-0.00091589	-0.00533975
31747	-0.000648853	-0.00517299
31786	-0.00108756	-0.00503705
31825	-0.000934964	-0.0038963
31864	-0.000934964	-0.00431648
31903	-0.00103033	-0.00412129
31942	-0.000954038	-0.0040897
31981	-0.000744223	-0.00330245
32020	-0.00082052	-0.00344867
32059	-0.000954038	-0.00331446
32098	-0.000877742	-0.0030818
32137	-0.000839594	-0.00278046
32176	-0.000896816	-0.00237903
32215	-0.000782372	-0.00268154
32254	-0.00091589	-0.00226066
32293	-0.00091589	-0.00232887
32332	-0.000801446	-0.00136289
32371	-0.00082052	-0.00200731
32410	-0.00091589	-0.00175088
32449	-0.00091589	-0.00174963
32488	-0.00103033	-0.000965852
32527	-0.000973113	-0.001178
32566	-0.00101126	-0.00122231
32605	-0.000934964	-0.000981483
32644	-0.000877742	-0.000541678
32683	-0.000934964	-0.000215387
32722	-0.00101126	-0.000494789
32761	-0.000934964	-0.000368994
32800	-0.000896816	-0.000222237
32839	-0.00101126	0.000472776
32878	-0.00106848	8.50797e-05
32917	-0.000954038	0.000369881
32956	-0.00103033	0.000225442
32995	-0.00091589	0.000833784
33034	-0.000801446	0.000638171
33073	-0.000877742	0.000789601
33112	-0.00091589	0.000806923
33151	-0.000877742	0.00123455
33190	-0.00101126	0.00141725
33229	-0.000992187	0.00130785
33268	-0.000801446	0.00131988
33307	-0.000954038	0.00145394
33346	-0.000934964	0.00222823
33385	-0.000877742	0.00167678
33424	-0.00103033	0.00185413
33463	-0.000973113	0.00187939
33502	-0.000896816	0.00255867
33541	-0.000763297	0.00221131
33580	-0.00091589	0.00240799
33619	-0.000858668	0.00237318
33658	-0.000896816	0.00283528
33697	-0.000973113	0.00304078
33736	-0.000896816	0.00276363
33775	-0.000877742	0.0029042
33814	-0.000877742	0.00294526
33853	-0.000744223	0.00372546
33892	-0.000934964	0.00316925
33931	-0.000896816	0.00328498
33970	-0.000801446	0.00330002
34009	-0.000782372	0.00401255
34048	-0.00091589	0.00357421
34087	-0.000877742	0.00366953
34126	-0.000744223	0.00372298
34165	-0.00091589	0.00408149
34204	-0.00082052	0.00406895
34243	-0.000896816	0.00394675
34282	-0.00091589	0.00405553
34321	-0.00108756	0.00420218
34360	-0.00091589	0.00482673
34399	-0.00103033	0.00437791
34438	-0.000954038	0.00451131
34477	-0.000896816	0.00455113
34516	-0.000973113	0.00533186
34555	-0.000934964	0.00475593
34594	-0.000934964	0.00485013
34633	-0.00091589	0.00488306
34672	-0.000839594	0.00529754
34711	-0.000973113	0.0053182
34750	-0.000896816	0.00518373
34789	-0.00103033	0.00525288
34828	-0.00103033	0.00541278
34867	-0.000954038	0.00604411
34906	-0.000782372	0.00569511
34945	-0.000934964	0.00574415
34984	-0.000858668	0.00564072
35023	-0.00091589	0.00634912
35062	-0.000973113	0.00602565
35101	-0.000973113	0.00606091
35140	-0.000954038	0.00591039
35179	-0.000934964	0.00628872
35218	-0.000973113	0.00630594
35257	-0.000801446	0.00625374
35296	-0.00091589	0.00637655
35335	-0.000877742	0.00657395
35374	-0.000839594	0.00705822
35413	-0.00091589	0.00663017
35452	-0.000744223	0.00666898
35491	-0.000973113	0.00667383
35530	-0.000801446	0.00730072
35569	-0.000973113	0.00681624
35608	-0.000954038	0.00695311
35647	-0.000896816	0.00687196
35686	-0.000934964	0.00736484
35725	-0.000954038	0.0071492
35764	-0.000934964	0.00707507
35803	-0.000934964	0.00723268
35842	-0.000992187	0.00739186
35881	-0.000877742	0.00784601
35920	-0.000973113	0.0075274
35959	-0.000839594	0.00759863
35998	-0.000954038	0.00761703
36037	-0.000858668	0.00822275
36076	-0.000934964	0.0076994
36115	-0.000934964	0.00782008
36154	-0.000858668	0.00781299
36193	-0.000782372	0.00833607
36232	-0.00091589	0.00803001
36271	-0.00082052	0.00814258
36310	-0.000992187	0.00812372
36349	-0.000782372	0.0082989
36388	-0.00082052	0.0156996
36427	-0.00091589	0.0150844
36466	-0.000973113	0.0149742
36505	-0.00101126	0.0147841
36544	-0.000954038	0.0152192
36583	-0.000839594	0.0147537
36622	-0.000896816	0.0147347
36661	-0.000877742	0.0145899
36700	-0.000896816	0.0150326
36739	-0.00091589	0.0147095
36778	-0.00101126	0.0147098
36817	-0.00091589	0.0147707
36856	-0.00082052	0.0149906
36895	-0.000896816	0.0151718
36934	-0.00091589	0.0149629
36973	-0.000954038	0.0150248
37012	-0.000954038	0.0149654
37051	-0.000858668	0.0155814
37090	-0.000801446	0.0150404
37129	-0.000934964	0.0152719
37168	-0.000896816	0.0151583
37207	-0.000992187	0.0155766
37246	-0.00091589	0.0154929
37285	-0.000858668	0.0152696
37324	-0.000801446	0.0153503
37363	-0.00103033	0.015603
37402	-0.000973113	0.0157217
37441	-0.000896816	0.0155535
37480	-0.000934964	0.0155007
37519	-0.000954038	0.0155392
37558	-0.00091589	0.0160248
37597	-0.000839594	0.0157793
37636	-0.000801446	0.0157535
37675	-0.000896816	0.0156562
37714	-0.000934964	0.0162015
37753	-0.00091589	0.0158756
37792	-0.00082052	0.0160674
37831	-0.000934964	0.015962
37870	-0.00103033	0.0161395
37909	-0.000896816	0.0164005
37948	-0.000801446	0.0161424
37987	-0.000896816	0.0161294
38026	-0.00091589	0.0160782
38065	-0.000954038	0.0167111
38104	-0.000896816	0.0162905
38143	-0.000744223	0.0166239
38182	-0.000992187	0.0163794
38221	-0.000954038	0.0169839
38260	-0.000896816	0.0166183
38299	-0.00091589	0.0165278
38338	-0.000801446	0.0166288
38377	-0.000934964	0.0168459
38416	-0.000839594	0.0170728
38455	-0.00091589	0.0167554
38494	-0.000973113	0.017058
38533	-0.000934964	0.0169777
38572	-0.000896816	0.017338
38611	-0.000992187	0.0169928
38650	-0.000992187	0.0171383
38689	-0.00103033	0.0170167
38728	-0.000896816	0.0174897
38767	-0.000934964	0.0170847
38806	-0.000992187	0.0173083
38845	-0.000706075	0.0172474
38884	-0.00091589	0.0176173
38923	-0.000973113	0.0177071
38962	-0.00082052	0.0175521
39001	-0.000839594	0.0175381
39040	-0.000954038	0.0175987
39079	-0.000954038	0.0180271
39118	-0.00082052	0.0176386
39157	-0.00091589	0.0177254
39196	-0.000896816	0.0175896
39235	-0.000934964	0.0180668
39274	-0.000877742	0.0175143
39313	-0.000877742	0.011425
39352	-0.000858668	0.0114131
39391	-0.000973113	0.0115896
39430	-0.00091589	0.0115535
39469	-0.000934964	0.0114479
39508	-0.000954038	0.0114747
39547	-0.00108756	0.0114663
39586	-0.000934964	0.0119462
39625	-2.00074	-35.4455
39664	-2.00093	-17.3275
39703	-2.00097	-11.7503
39742	-2.00087	-9.05656
39781	-2.00084	-7.39678
39820	-2.00078	-6.3241
39859	-2.00097	-5.48625
39898	-2.00095	-4.91737
39937	-2.00087	-4.52241
39976	-2.00082	-4.12367
40015	-2.00089	-3.82022
40054	-2.00076	-3.56309
40093	-2.00085	-3.40949
40132	-2.00089	-3.18102
40171	-2.00091	-3.03546
40210	-2.00097	-2.93294
40249	-2.00084	-2.79871
40288	-2.00084	-2.67356
40327	-2.00078	-2.59042
40366	-2.00091	-2.49981
40405	-2.00089	-2.41744
40444	-2.00082	-2.35344
40483	-2.00095	-2.3095
40522	-0.00091589	4.32882
40561	-0.000954038	1.22228
40600	-0.00103033	0.727758
40639	-0.000858668	0.528588
40678	-0.00103033	0.427828
40717	-0.00091589	0.367257
40756	-0.000954038	0.330733
40795	-0.000973113	0.299341
40834	-0.00091589	0.276535
40873	-0.00091589	0.25817
40912	-0.000934964	0.245221
40951	-0.000858668	0.233446
40990	-0.000896816	0.221384
41029	-0.00101126	0.211936
41068	-0.00091589	0.203654
41107	-0.000725149	0.198397
41146	-0.000839594	0.1898
41185	-0.00091589	0.183431
41224	-0.000896816	0.177813
41263	-0.000934964	0.174747
41302	-0.00082052	0.168208
41341	-0.000973113	0.16351
41380	-0.000973113	0.15905
41419	-0.00106848	0.156182
41458	-0.000992187	0.152673
41497	-0.000858668	0.148024
41536	-0.000877742	0.144903
41575	-0.00091589	0.141845
41614	-0.000801446	0.140627
41653	-0.000954038	0.136305
41692	-0.000858668	0.133577
41731	-0.000992187	0.130825
41770	-0.000896816	0.13036
41809	-0.000896816	0.12658
41848	-0.000896816	0.124166
41887	-0.000954038	0.12178
41926	-0.00101126	0.12078
41965	-0.000973113	0.118758
42004	-0.000973113	0.116275
42043	-0.000782372	0.114328
42082	-0.00103033	0.112843
42121	-0.00091589	0.112115
42160	-0.00091589	0.10933
42199	-0.000934964	0.107918
42238	-0.000896816	0.105951
42277	-0.00091589	0.106314
42316	-0.000801446	0.103579
42355	-0.000934964	0.102212
42394	-0.000973113	0.100604
42433	-0.00091589	0.100508
42472	-0.00082052	0.0986389
42511	-0.00091589	0.0971321
42550	-0.000934964	0.0958011
42589	-0.000954038	0.0948937
42628	-0.000896816	0.094711
42667	-0.000801446	0.0927603
42706	-0.000782372	0.0917455
42745	-0.000839594	0.0905631
42784	-0.00103033	0.0909966
42823	-0.00082052	0.0887927
42862	-0.000896816	0.0880514
42901	-0.000954038	0.0867664
42940	-0.000896816	0.0869361
42979	-0.000896816	0.085659
43018	-0.000934964	0.0845359
43057	-0.00082052	0.0835884
43096	-0.000877742	0.0830243
43135	-0.00091589	0.0829463
43174	-0.000858668	0.0811339
43213	1.49955	32.1629
43252	1.49955	13.8881
43291	1.49957	9.32986
43330	1.49951	7.42569
43369	1.49945	6.37364
43408	1.49959	5.67618
43447	1.49961	5.14001
43486	1.49961	4.68032
43525	1.49951	4.40219
43564	1.4994	4.14023
43603	1.49947	3.79903
43642	1.49943	3.5091
43681	1.49966	3.38273
43720	1.49949	3.2456
43759	1.49962	3.11943
43798	1.49955	2.9255
43837	1.49955	2.77911
43876	1.49959	2.71019
43915	1.49947	2.62246
43954	1.49949	2.52155
43993	1.49955	2.32542
44032	1.49961	2.31975
44071	1.49964	2.28614
44110	1.49953	2.27085
44149	1.49964	2.11715
44188	1.49949	2.10232
44227	1.49945	2.1257
44266	1.49959	2.14549
44305	1.49953	2.08443
44344	1.49961	1.98389
44383	1.49955	2.00764
44422	1.49949	2.02167
44461	1.49943	2.0263
44500	1.49936	1.90345
44539	1.49961	1.90246
44578	1.49947	1.91384
44617	1.49962	1.93766
44656	1.49961	1.86107
44695	1.49951	1.82579
44734	1.4997	1.83879
44773	1.49945	1.85464
44812	1.49957	1.8539
44851	1.49955	1.77756
44890	1.49962	1.78529
44929	1.49941	1.79378
44968	1.49964	1.80635
45007	-0.00082052	-4.06704
45046	-0.000934964	-0.383684
45085	-0.000858668	-0.171828
45124	-0.000896816	-0.10384
45163	-0.000801446	-0.0714893
45202	-0.000839594	-0.0523621
45241	-0.000896816	-0.0399753
45280	-0.000858668	-0.0312494
45319	-0.00082052	-0.0243967
45358	-0.000973113	-0.0197601
45397	-0.00091589	-0.015825
45436	-0.000896816	-0.0125486
45475	-0.000877742	-0.00952232
45514	-0.000934964	-0.00777095
45553	-0.000896816	-0.00591337
45592	-0.000934964	-0.00445747
45631	-0.000839594	-0.00256461
45670	-0.000934964	-0.00142585
45709	-0.000744223	-0.000457367
45748	-0.000954038	0.000398213
45787	-0.000839594	0.00137548
45826	-0.000934964	0.00258879
45865	-0.000934964	0.0029682
45904	-0.000973113	0.00383186
45943	-0.00108756	0.00432158
45982	-0.000934964	0.00581183
46021	-0.000858668	0.00560487
46060	-0.00103033	0.00599453
46099	-0.000973113	0.00657561
46138	-0.000954038	0.00737117
46177	-0.000839594	0.00758908
46216	-0.000839594	0.00783197
46255	-0.000992187	0.00830792
46294	-0.000896816	0.00848066
46333	-0.000934964	0.0092468
46372	-0.000934964	0.00926428
46411	-0.00103033	0.00947958
46450	-0.000973113	0.00964246
46489	-0.000973113	0.0105526
46528	-0.000839594	0.0101317
46567	-0.00106848	0.01041
46606	-0.000992187	0.0105572
46645	-0.00082052	0.0111891
46684	-0.000896816	0.0111222
46723	-0.000954038	0.0110684
46762	-0.000934964	0.0113279
46801	-0.000896816	0.0116409
46840	-0.000858668	0.0120882
46879	-0.00103033	0.0118805
46918	-0.00091589	0.0120671
46957	-0.00091589	0.0122075
46996	-0.000896816	0.0129367
47035	-0.000877742	0.0123895
47074	-0.000934964	0.0127028
47113	-0.000934964	0.0126869
47152	-0.00106848	0.0133211
47191	-0.00082052	0.0129406
47230	-0.000973113	0.0130289
47269	-0.000896816	0.013293
47308	-0.00101126	0.0134069
47347	-0.000782372	0.0138167
47386	-0.000858668	0.0135791
47425	-0.000858668	0.0136772
47464	-0.000896816	0.0136804
47503	-0.000954038	0.0143513
47542	-0.000877742	0.0138312
47581	-0.000877742	0.0140282
47620	-0.00091589	0.0139229
47659	-0.000839594	0.0144723
47698	-0.000896816	0.0141998
47737	-0.000992187	0.0142403
47776	-0.00091589	0.014527
47815	-0.000858668	0.0146139
47854	-0.000858668	0.0149982
47893	-0.00101126	0.0147329
47932	-0.000954038	0.0149101
47971	-0.000954038	0.0149259
48010	-0.00082052	0.0154894
48049	-0.000782372	0.0151642
48088	-0.000782372	0.0153221
48127	-0.000896816	0.015364
48166	-0.000934964	0.0156785
48205	-0.00091589	0.0155828
48244	-0.000954038	0.0155399
48283	-0.00101126	0.0154125
48322	-0.000934964	0.0154999
48361	-0.000877742	0.00938272
48400	-0.000877742	0.00910711
48439	-0.000782372	0.00929034
48478	-0.000992187	0.00924324
48517	-0.000858668	0.00973429
48556	-0.000782372	0.00927327
48595	-0.000896816	0.00941661
48634	-0.000877742	0.00937483
48673	-0.000896816	0.00980915
48712	-0.000954038	0.00951933
48751	-0.000839594	0.00949849
48790	-0.00106848	0.0094348
48829	-0.000954038	0.00976671
48868	-0.00091589	0.00981298
48907	-0.000954038	0.00955366
48946	-0.000973113	0.00970612
48985	-0.000992187	0.00973195
49024	-0.00091589	0.0102072
49063	-0.000877742	0.00981793
49102	-0.000877742	0.00988652
49141	-0.000839594	0.00984164
49180	-0.000896816	0.0102617
49219	-0.00091589	0.00990127
49258	-0.00101126	0.00989884
49297	-0.000839594	0.00989317
49336	-0.00091589	0.0101356
49375	-0.000896816	0.0102307
49414	-0.000744223	0.00999068
49453	-0.00104941	0.00995351
49492	-0.000858668	0.0101208
49531	-0.00091589	0.010516
49570	-0.000858668	0.0100476
49609	-0.00082052	0.0101098
49648	-0.000973113	0.0100418
49687	-0.000954038	0.0105535
49726	-0.000877742	0.0101768
49765	-0.00091589	0.0102033
49804	-0.000896816	0.0101371
49843	-0.00091589	0.0104573
49882	-0.000839594	0.0104211
49921	-0.000877742	0.0101692
49960	-0.000954038	0.0102719
49999	-0.000896816	0.0103907
50038	-0.00082052	0.0107144
50077	-0.000992187	0.0103373
50116	-0.000934964	0.0103973
50155	-0.000934964	0.0102831
50194	-0.000992187	0.0107403
50233	-0.000877742	0.0103404
50272	-0.000877742	0.0104806
50311	-0.000934964	0.0104437
50350	-0.000992187	0.0106997
50389	-0.000896816	0.0106974
50428	-0.000896816	0.0104635
50467	-0.00091589	0.0105011
50506	-0.00103033	0.0106421
50545	-0.00091589	0.0109265
50584	-0.000934964	0.0104925
50623	-0.000896816	0.0105859
50662	-0.00104941	0.0105628
50701	-0.00091589	0.0109185
50740	-0.00101126	0.0104867
50779	-0.00091589	0.0106179
50818	-0.00082052	0.0105987
50857	-0.00091589	0.0109116
50896	-0.000992187	0.0107231
50935	-0.000877742	0.0106716
50974	-0.000896816	0.0106777
51013	-0.000934964	0.0107896
51052	-0.000839594	0.0109749
51091	-0.000877742	0.0105613
51130	-0.000934964	0.0107119
51169	-0.000839594	0.0106754
51208	-0.000877742	0.0110884
51247	-0.000801446	0.0106466
51286	-0.00091589	0.0107426
51325	-0.000877742	0.0107079
51364	-0.000896816	0.0109698
51403	-0.00082052	0.0108034
51442	-0.000896816	0.0107466
51481	-0.000858668	0.0107401
51520	-0.00110663	0.0108994
51559	-0.000763297	0.0110591
51598	-0.000801446	0.0107406
51637	-0.000992187	0.0108388
51676	-0.000934964	0.0108031
51715	-0.000973113	0.0112122
51754	-0.00101126	0.0107623
51793	-0.00091589	0.010904
51832	-0.00101126	0.0108048
51871	-0.000839594	0.0111025
51910	-0.00091589	0.0108808
51949	-0.00103033	0.0108311
51988	-0.00103033	0.0108718
52027	-0.000896816	0.0109493
52066	-0.000973113	0.011101
52105	-0.00091589	0.0107871
52144	-0.00091589	0.0108208
52183	-0.000763297	0.0109316
52222	-0.000934964	0.0113103
52261	-0.000725149	0.0108362
52300	-0.00082052	0.0108062
52339	-0.00091589	0.0108192
52378	-0.000973113	0.0110775
52417	-0.000877742	0.0109118
52456	-0.000877742	0.010893
52495	-0.00101126	0.0108395
52534	-0.000934964	0.0110141
52573	-0.00082052	0.0110711
52612	-0.000782372	0.0108462
52651	-0.000954038	0.0109199
52690	-0.000934964	0.0109132
52729	-0.00091589	0.0112943
52768	-0.00091589	0.0108184
52807	-0.00101126	0.0108656
52846	-0.00091589	0.0108691
52885	-0.000973113	0.0111967
52924	-0.00082052	0.0109186
52963	-0.00101126	0.0108809
53002	-0.000954038	0.0109029
53041	-0.000858668	0.0109903
53080	-0.00101126	0.01115
53119	-0.000934964	0.0108575
53158	-0.000839594	0.0108784
53197	-0.00104941	0.0109312
53236	-0.000877742	0.0112134
53275	-0.000896816	0.010902
53314	-0.000839594	0.0109767
53353	-0.000839594	0.0108563
53392	-0.000954038	0.0111653
53431	-0.000801446	0.0109019
53470	-0.00082052	0.0108806
53509	-0.00091589	0.0109192
53548	-0.00091589	0.0110176
53587	-0.000744223	0.0110764
53626	-0.000973113	0.0108992
53665	-0.000801446	0.0109332
53704	-0.000992187	0.010889
53743	-0.000992187	0.0112176
53782	-0.000896816	0.0108686
53821	-0.00082052	0.0109008
53860	-0.00101126	0.0108538
53899	-0.000954038	0.0111497
53938	-0.00103033	0.010806
53977	-0.000877742	0.0109076
54016	-2.00095	-38.4857
54055	-2.00089	-13.7637
54094	-2.00095	-9.05531
54133	-2.00085	-6.85537
54172	-2.00089	-5.62331
54211	-2.00095	-4.84665
54250	-2.00095	-4.34515
54289	-2.00097	-3.90267
54328	-2.00085	-3.58378
54367	-2.00103	-3.36663
54406	-2.00085	-3.13434
54445	-2.00091	-2.96623
54484	-2.00078	-2.85177
54523	-2.00082	-2.70326
54562	-2.00097	-2.59264
54601	-2.00087	-2.51378
54640	-2.00087	-2.42906
54679	-2.00087	-2.33802
54718	-2.00087	-2.27942
54757	-2.00095	-2.23806
54796	-2.00087	-2.1749
54835	-2.00089	-2.07321
54874	-2.00101	-2.11467
54913	-0.000896816	8.39085
54952	-0.00101126	1.38167
54991	-0.000934964	0.741965
55030	-0.000896816	0.520668
55069	-0.000896816	0.409113
55108	-0.000839594	0.344323
55147	-0.000896816	0.298862
55186	-0.000877742	0.267709
55225	-0.000782372	0.253709
55264	-0.00110663	0.237216
55303	-0.000934964	0.220419
55342	-0.000954038	0.208116
55381	-0.000839594	0.197366
55420	-0.000801446	0.189798
55459	-0.00082052	0.181141
55498	-0.000896816	0.173972
55537	-0.000839594	0.16771
55576	-0.000896816	0.162573
55615	-0.000896816	0.157877
55654	-0.00108756	0.152479
55693	-0.000934964	0.148054
55732	-0.00101126	0.144015
55771	-0.000877742	0.141611
55810	-0.00082052	0.136995
55849	-0.00101126	0.133649
55888	-0.000992187	0.130302
55927	-0.000858668	0.128726
55966	-0.000839594	0.125128
56005	-0.000954038	0.122334
56044	-0.00091589	0.119659
56083	-0.000896816	0.117943
56122	-0.000992187	0.115892
56161	-0.000877742	0.113113
56200	-0.000973113	0.111336
56239	-0.000934964	0.109324
56278	-0.00082052	0.108436
56317	-0.000801446	0.105555
56356	-0.000896816	0.104065
56395	-0.00082052	0.102235
56434	-0.000992187	0.101829
56473	-0.000896816	0.0991947
56512	-0.000992187	0.0979336
56551	-0.000839594	0.0963652
56590	-0.000801446	0.0955906
56629	-0.000973113	0.0941554
56668	-0.000973113	0.0925022
56707	-0.000973113	0.0912898
56746	-0.000877742	0.0900632
56785	-0.000954038	0.0898461
56824	-0.000877742	0.0880645
56863	-0.000877742	0.0870367
56902	-0.00091589	0.0857494
56941	-0.000934964	0.085713
56980	-0.000954038	0.0838256
57019	-0.000877742	0.0830064
57058	-0.000934964	0.0820816
57097	-0.000839594	0.0817427
57136	-0.000896816	0.0807168
57175	-0.000896816	0.079577
57214	-0.000992187	0.0787411
57253	-0.000877742	0.0780959
57292	-0.00082052	0.0779316
57331	-0.000839594	0.0765129
57370	-0.000954038	0.075764
57409	-0.000877742	0.075105
57448	-0.000877742	0.0752649
57487	-0.000954038	0.073886
57526	-0.000896816	0.0732048
57565	-0.000839594	0.0723485
57600	-0.00101126	0.0718035