File: Data_17_Experiment/CA_001_C01.txt
time/s	Ewe/V	<I>/mA
1	1.49942	374.986
40	1.49944	49.738
79	1.49942	33.4975
118	1.49918	26.1192
157	1.49927	21.7308
196	1.4991	18.8527
235	1.49929	16.7241
274	1.49919	15.049
313	1.49944	13.7128
352	1.49937	12.6122
391	1.49921	11.6807
430	1.49904	10.8284
469	1.49927	10.1252
508	1.49929	9.47204
547	1.49868	8.96715
586	1.49927	8.44128
625	1.49908	8.00964
664	1.49986	7.58893
703	1.49931	7.25082
742	1.49931	6.92118
781	1.49916	6.6198
820	1.49927	6.33123
859	1.49916	6.07262
898	1.49952	5.85165
937	1.4991	5.62354
976	1.49923	5.42106
1015	1.49921	5.22636
1054	1.49973	5.0795
1093	1.49914	4.89698
1132	1.49963	4.71215
1171	1.4995	4.56025
1210	1.49931	4.44275
1249	1.49919	4.3099
1288	1.49921	4.1813
1327	1.49944	4.06763
1366	1.49918	3.95129
1405	1.49923	3.86738
1444	1.49958	3.75832
1483	1.49948	3.66212
1522	1.49916	3.56179
1561	1.49961	3.49391
1600	1.49906	3.39979
1639	1.4995	3.32124
1678	1.49937	3.2379
1717	1.4991	3.17434
1756	1.49931	3.10102
1795	1.49929	3.03387
1833.95	-0.000888042	-0.470358
1872.95	-0.00111693	0.293684
1911.95	-0.00125045	0.359494
1950.95	-0.000964338	0.313531
1989.95	-0.00109786	0.257992
2028.95	-0.000983412	0.228739
2067.95	-0.00102156	0.193396
2106.95	-0.00113601	0.153477
2145.95	-0.00107878	0.128408
2184.95	-0.000907116	0.117547
2223.95	-0.00111693	0.125376
2262.95	-0.00092619	0.103524
2301.95	-0.00111693	0.0941886
2340.95	-0.00092619	0.0895886
2379.95	-0.00113601	0.0899161
2418.95	-0.00102156	0.0798596
2457.95	-0.00113601	0.0692587
2496.95	-0.00105971	0.0625793
2535.95	-0.000640079	0.0668587
2574.95	-0.000811746	0.0690404
2613.95	-0.0012123	0.0605148
2652.95	-0.000945264	0.057636
2691.95	-0.000716375	0.0583197
2730.95	-0.00107878	0.0673642
2769.95	-0.00083082	0.0581879
2808.95	-0.000716375	0.0529247
2847.95	-0.00107878	0.0515909
2886.95	-0.00107878	0.0576921
2925.95	-0.00111693	0.0545542
2964.95	-0.000945264	0.0499724
3003.95	-0.000945264	0.0472743
3042.95	-0.00123138	0.0516693
3081.95	-0.00119323	0.0539796
3120.95	-0.000544708	0.0480769
3159.95	-0.00126952	0.044844
3198.95	-0.00113601	0.0456259
3237.95	-0.00105971	0.0526943
3276.95	-0.00104063	0.047367
3315.95	-0.00113601	0.0439998
3354.95	-0.000754523	0.0419397
3393.95	-0.00104063	0.0504342
3432.95	-0.000964338	0.0470457
3471.95	-0.00115508	0.0423605
3510.95	-0.00113601	0.0396925
3549.95	-0.00111693	0.0455773
3588.95	-0.00134582	0.0471645
3627.95	-0.0012886	0.041884
3666.95	-0.00105971	0.0398319
3705.95	-0.00132675	0.0408928
3744.95	-0.00107878	0.0468295
3783.95	-0.00107878	0.0422941
3822.95	-0.00115508	0.0387154
3861.95	-0.00117415	0.0375585
3900.95	-0.000849894	0.04484
3939.95	-0.00115508	0.0424669
3978.95	-0.000697301	0.0390501
4017.95	-0.00102156	0.0367346
4056.95	-0.000487486	0.041634
4095.95	-0.000907116	0.0422563
4134.95	-0.0012886	0.0386813
4173.95	-0.0012123	0.0363228
4212.95	-0.00111693	0.0384257
4251.95	-0.000907116	0.0438413
4290.95	-0.0012886	0.0392272
4329.95	-0.00113601	0.0373508
4368.95	-0.0012123	0.0358433
4407.95	-0.00111693	0.0427927
4446.95	-0.0012123	0.0401076
4485.95	-0.000888042	0.0367505
4524.95	-0.00100249	0.0349626
4563.95	-0.000754523	0.0399608
4602.95	-0.000945264	0.0410652
4641.95	-0.000964338	0.0377552
4680.95	-0.000868968	0.0358501
4719.95	-0.00113601	0.0372902
4758.95	-0.000983412	0.0401316
4797.95	-0.000945264	0.0367704
4836.95	-0.00115508	0.0357455
4875.95	-0.00113601	0.0352545
4914.95	-0.00104063	0.0414102
4953.95	-0.00083082	0.038972
4992.95	-0.00105971	0.0356445
5031.95	-0.00102156	0.0340853
5070.95	-0.000888042	0.0391032
5109.95	-0.00109786	0.0389337
5148.95	-0.00109786	0.0359067
5187.95	-0.00092619	0.0354351
5226.95	-0.000868968	0.0376137
5265.95	-0.000849894	0.039452
5304.95	-0.000773597	0.0349993
5343.95	-0.000983412	0.0345415
5382.95	-0.00104063	0.0342624
5421.95	-0.00109786	0.039262
5460.95	-0.00104063	0.0363981
5499.95	-0.00123138	0.0346058
5538.95	-0.00113601	0.0333491
5577.95	-0.000888042	0.0380934
5616.95	-0.000811746	0.0383034
5655.95	-0.00102156	0.0356681
5694.95	-0.000868968	0.034278
5733.95	-0.00105971	0.0354705
5772.95	-0.00109786	0.0380626
5811.95	-0.00105971	0.0353221
5850.95	-0.00104063	0.0349872
5889.95	-0.00100249	0.0352568
5928.95	-0.000811746	0.0390071
5967.95	-0.00123138	0.0374563
6006.95	-0.00104063	0.0352986
6045.95	-0.00115508	0.0338608
6084.95	-0.00130767	0.0377029
6123.95	-0.00105971	0.0376014
6162.95	-0.000907116	0.0362339
6201.95	-0.00105971	0.0346868
6240.95	-0.00140304	0.0362935
6279.95	-0.00104063	0.0379049
6318.95	-0.0012123	0.036257
6357.95	-0.000983412	0.0344808
6396.95	-0.00092619	0.0345638
6435.95	-0.00104063	0.0376899
6474.95	-0.000983412	0.0359679
6513.95	-0.00140304	0.0342391
6552.95	-0.000983412	0.034067
6591.95	-0.00100249	0.0370521
6630.95	-0.000888042	0.0366127
6669.95	-0.000792671	0.0351733
6708.95	-0.00105971	0.0341116
6747.95	-0.00123138	0.0352942
6786.95	-0.000964338	0.0365585
6825.95	-0.000964338	0.0347978
6864.95	-0.00126952	0.0341471
6903.95	-0.000849894	0.0345235
6942.95	-0.000888042	0.0372022
6981.95	-0.000716375	0.0355211
7020.95	-0.000888042	0.033765
7059.95	-0.00119323	0.0327804
7098.95	-0.000735449	0.0360874
7137.95	-0.000888042	0.0356689
7176.95	-0.00105971	0.0348132
7215.95	-0.00100249	0.0337934
7254.95	-0.000907116	0.0351669
7293.95	-0.000792671	0.0361437
7332.95	-0.00117415	0.0352663
7371.95	-0.00123138	0.0336685
7410.95	-0.00105971	0.0335277
7449.95	-0.00105971	0.0360272
7488.95	-0.0012123	0.0347539
7527.95	-0.00060193	0.0330481
7566.95	-0.00117415	0.0330801
7605.95	-0.00115508	0.0352761
7644.95	-0.000983412	0.0344389
7683.95	-0.00113601	0.033599
7722.95	-0.00111693	0.0330292
7761.95	-0.00111693	0.0351611
7800.95	-0.000754523	0.035337
7839.95	-0.00102156	0.0342438
7878.95	-0.000754523	0.0330027
7917.95	-0.00144119	0.0331534
7956.95	-0.00107878	0.0352674
7995.95	-0.000983412	0.0338781
8034.95	-0.000659153	0.0331354
8073.95	-0.00113601	0.0324436
8112.95	-0.00105971	0.0354894
8151.95	-0.000868968	0.034867
8190.95	-0.00123138	0.0338021
8229.95	-0.00113601	0.0329829
8268.95	-0.000907116	0.0349801
8307.95	-0.000811746	0.0345385
8346.95	-0.000868968	0.0328642
8385.95	-0.00092619	0.0322336
8424.95	-0.000888042	0.0326286
8463.95	-0.000582856	0.0349236
8502.95	-0.000868968	0.0338765
8541.95	-0.000945264	0.0327879
8580.95	-0.00130767	0.0318032
8619.95	-0.00147934	0.034298
8658.95	-0.00105971	0.034043
8697.95	-0.00126952	0.0332297
8736.95	-0.000964338	0.0321076
8775.95	-0.000983412	0.0336803
8814.95	-0.00105971	0.0340446
8853.95	-0.000964338	0.0332624
8892.95	-0.00136489	0.0329227
8931.95	-0.000849894	0.0331069
8970.95	-0.00130767	0.0342615
9009.95	-0.000849894	0.0327625
9048.95	-0.00115508	0.0323081
9087.95	-0.000945264	0.0326274
9126.95	-0.000868968	0.0348891
9165.95	-0.000945264	0.0336155
9204.95	-0.00109786	0.0322055
9243.95	-0.000945264	0.0316916
9282.95	-0.0012123	0.0336095
9321.95	-0.00102156	0.0333811
9360.95	-0.0012886	0.0317915
9399.95	-0.000907116	0.0319643
9438.95	-0.00100249	0.0324639
9477.95	-0.000945264	0.0336155
9516.95	-0.00123138	0.032612
9555.95	-0.00100249	0.0314801
9594.95	-0.000964338	0.030997
9633.95	-0.000811746	0.0331303
9672.95	-0.00142212	0.0323303
9711.95	-0.000849894	0.0318204
9750.95	-0.00111693	0.0317441
9789.95	-0.00140304	0.0322457
9828.95	-0.00109786	0.032043
9867.95	-0.00100249	0.0313926
9906.95	-0.000888042	0.0298438
9945.95	-0.000964338	0.0306204
9984.95	-0.00109786	0.0325248
10024	-0.000754523	0.0315092
10063	-0.000773597	0.0322223
10102	-0.00100249	0.0321124
10141	-0.00132675	0.0327507
10180	-0.00092619	0.0315739
10219	-0.000735449	0.0308153
10258	-0.000945264	0.0298676
10297	-0.000621005	0.0311891
10336	-0.000907116	0.0315163
10375	-0.000849894	0.0308804
10414	-0.0012123	0.0310998
10453	-0.00113601	0.0315215
10492	-0.000983412	0.032315
10531	-0.00119323	0.0312722
10570	-0.000792671	0.0305528
10609	-0.000888042	0.0303853
10648	-0.000907116	0.0323526
10687	-0.000811746	0.0315217
10726	-0.000983412	0.0309015
10765	-0.000964338	0.0308212
10804	-0.500916	-4.35412
10843	-0.500629	-0.908094
10882	-0.500992	-0.59855
10921	-0.500782	-0.468812
10960	-0.500897	-0.39392
10999	-0.50082	-0.342884
11038	-0.500992	-0.306504
11077	-0.500973	-0.279022
11116	-0.500858	-0.257352
11155	-0.500763	-0.239551
11194	-0.501431	-0.224556
11233	-0.500954	-0.212284
11272	-0.500725	-0.20132
11311	-0.500534	-0.19199
11350	-0.501125	-0.18338
11389	-0.501469	-0.176731
11428	-0.501011	-0.170153
11467	-0.500935	-0.164252
11506	-0.500706	-0.158163
11545	-0.500782	-0.153265
11584	-0.501068	-0.148657
11623	-0.500687	-0.144546
11662	-0.501049	-0.140682
11701	-0.00123138	24.6771
11740	-0.00100249	0.775088
11779	-0.000811746	0.412862
11818	-0.00119323	0.291161
11857	-0.00107878	0.225448
11896	-0.000945264	0.184286
11935	-0.00123138	0.156362
11974	-0.000811746	0.138137
12013	-0.00105971	0.12307
12052	-0.00109786	0.110034
12091	-0.000754523	0.100522
12130	-0.000945264	0.0933216
12169	-0.000983412	0.0880237
12208	-0.00125045	0.0815684
12247	-0.00113601	0.0781453
12286	-0.00104063	0.0738413
12325	-0.00102156	0.0721028
12364	-0.00157471	0.0681831
12403	-0.000716375	0.0643496
12442	-0.00100249	0.0618823
12481	-0.000907116	0.0618082
12520	-0.0012123	0.06043
12559	-0.000773597	0.0581311
12598	-0.00134582	0.0562441
12637	-0.000983412	0.0550099
12676	-0.00123138	0.0547729
12715	-0.000659153	0.0523443
12754	-0.00109786	0.0502345
12793	-0.00109786	0.0486822
12832	-0.000659153	0.048636
12871	-0.000754523	0.0473122
12910	-0.00100249	0.0465493
12949	-0.000868968	0.0458301
12988	-0.00111693	0.046239
13027	-0.00105971	0.0458978
13066	-0.00100249	0.0445692
13105	-0.000983412	0.044063
13144	-0.00144119	0.0436434
13183	-0.000964338	0.0438533
13222	-0.000792671	0.0418486
13261	-0.00104063	0.0406813
13300	-0.00111693	0.0398258
13339	-0.000907116	0.0405329
13378	-0.00100249	0.0400128
13417	-0.00115508	0.0394553
13456	-0.00111693	0.0391942
13495	-0.00113601	0.0401469
13534	-0.00125045	0.0399135
13573	-0.00113601	0.0389978
13612	-0.00083082	0.0385928
13651	-0.00092619	0.0387171
13690	-0.000964338	0.0390374
13729	-0.00138397	0.0377725
13768	-0.00104063	0.0373914
13807	-0.00117415	0.0374239
13846	-0.00132675	0.0381431
13885	-0.00104063	0.0368061
13924	-0.000888042	0.0366206
13963	-0.000964338	0.0361281
14002	-0.00109786	0.0369654
14041	-0.0012886	0.0364172
14080	-0.00100249	0.0355976
14119	-0.000964338	0.0357098
14158	-0.000964338	0.0353047
14197	-0.00102156	0.0353752
14236	-0.00105971	0.0344744
14275	-0.000849894	0.0344895
14314	-0.00083082	0.0340956
14353	-0.000754523	0.0345033
14392	-0.00104063	0.034155
14431	1.49918	10.1137
14470	1.49902	6.93306
14509	1.49927	5.90727
14548	1.49935	5.33044
14587	1.4991	4.89345
14626	1.49952	4.53372
14665	1.49939	4.25793
14704	1.49918	4.03232
14743	1.49952	3.83012
14782	1.49925	3.65
14821	1.49961	3.49131
14860	1.49973	3.3407
14899	1.49918	3.2167
14938	1.49919	3.1004
14977	1.49929	2.99306
15016	1.49927	2.88286
15055	1.49931	2.79346
15094	1.49939	2.70449
15133	1.4995	2.62035
15172	1.49931	2.53962
15211	1.49927	2.46914
15250	1.499	2.40734
15289	1.49944	2.34477
15328	1.4994	2.28868
15367	1.49919	2.22858
15406	1.49919	2.18953
15445	1.49956	2.14369
15484	1.4996	2.10145
15523	1.49937	2.04825
15562	1.49967	2.01765
15601	1.49931	1.98589
15640	1.49935	1.95353
15679	1.49948	1.9128
15718	1.49939	1.87634
15757	1.49925	1.86055
15796	1.49914	1.83176
15835	1.49952	1.8026
15874	1.49906	1.75405
15913	1.49929	1.74845
15952	1.49939	1.72885
15991	1.49921	1.70882
16030	1.49927	1.66324
16069	1.49918	1.65849
16108	1.49973	1.64748
16147	1.49981	1.62628
16186	1.49919	1.58953
16225	-0.00109786	-1.26061
16264	-0.000811746	-0.0846542
16303	-0.00117415	0.113169
16342	-0.000945264	0.140067
16381	-0.000849894	0.12211
16420	-0.000907116	0.0978184
16459	-0.000773597	0.0798963
16498	-0.00115508	0.0676674
16537	-0.00123138	0.0622776
16576	-0.00102156	0.0546857
16615	-0.00104063	0.0486041
16654	-0.000964338	0.0442803
16693	-0.00138397	0.0430423
16732	-0.000716375	0.0417557
16771	-0.000945264	0.0389484
16810	-0.00104063	0.0373811
16849	-0.00109786	0.036071
16888	-0.00109786	0.0370098
16927	-0.00100249	0.0348372
16966	-0.000811746	0.0329125
17005	-0.000964338	0.0321561
17044	-0.000888042	0.0338428
17083	-0.00092619	0.0326337
17122	-0.00109786	0.0311779
17161	-0.000983412	0.0303334
17200	-0.000964338	0.0312536
17239	-0.00107878	0.0317665
17278	-0.00123138	0.0304764
17317	-0.00107878	0.029646
17356	-0.000849894	0.0296752
17395	-0.000983412	0.0306325
17434	-0.00123138	0.0294968
17473	-0.000678227	0.0291628
17512	-0.000811746	0.0289112
17551	-0.000621005	0.0302057
17590	-0.00105971	0.0299844
17629	-0.00113601	0.0291104
17668	-0.000792671	0.0283398
17707	-0.00123138	0.0291338
17746	-0.000983412	0.0294498
17785	-0.00113601	0.0286401
17824	-0.00119323	0.0279664
17863	-0.000868968	0.02781
17902	-0.00104063	0.0288458
17941	-0.00104063	0.0280657
17980	-0.00100249	0.0275808
18019	-0.000868968	0.0271308
18058	-0.00100249	0.0285009
18097	-0.00105971	0.0283793
18136	-0.00111693	0.0273349
18175	-0.000773597	0.0266385
18214	-0.000983412	0.0274909
18253	-0.000888042	0.0272472
18292	-0.000964338	0.0261758
18331	-0.00109786	0.0259132
18370	-0.000907116	0.0265162
18409	-0.00107878	0.0275332
18448	-0.00117415	0.0265981
18487	-0.000659153	0.0262841
18526	-0.00107878	0.0263542
18565	-0.00107878	0.0271048
18604	-0.00102156	0.0263772
18643	-0.00123138	0.0258803
18682	-0.000849894	0.0252856
18721	-0.00100249	0.0259494
18760	-0.00115508	0.0259258
18799	-0.000964338	0.025594
18838	-0.00165101	0.0254043
18877	-0.00117415	0.0256822
18916	-0.00125045	0.0262443
18955	-0.000811746	0.0253735
18994	-0.000773597	0.0248807
19033	-0.00092619	0.0247706
19072	-0.00104063	0.0260294
19111	-0.000582856	0.0254307
19150	-0.00104063	0.024977
19189	-0.000849894	0.0250258
19228	-0.00100249	0.0261136
19267	-0.00102156	0.0257406
19306	-0.00147934	0.0250201
19345	-0.00132675	0.0247761
19384	-0.000983412	0.0253448
19423	-0.000983412	0.0252609
19462	-0.000907116	0.024375
19501	-0.00117415	0.0239387
19540	-0.00092619	0.0241333
19579	-0.00113601	0.0250315
19618	-0.00104063	0.0245919
19657	-0.000697301	0.0243523
19696	-0.000792671	0.0241927
19735	-0.00102156	0.0248102
19774	-0.000773597	0.0243422
19813	-0.00117415	0.0237036
19852	-0.00104063	0.0234038
19891	-0.00104063	0.023898
19930	-0.000868968	0.0242973
19969	-0.00132675	0.0236049
20008	-0.00119323	0.0234674
20047	-0.000697301	0.0231971
20086	-0.000983412	0.0239124
20125	-0.00050656	0.023732
20164	-0.00109786	0.0236606
20203	-0.00134582	0.0234757
20242	-0.0012123	0.0236147
20281	-0.000735449	0.0228199
20320	-0.000983412	0.0222132
20359	-0.00117415	0.0220637
20398	-0.00130767	0.0226752
20437	-0.00060193	0.0230998
20476	-0.000983412	0.0228874
20515	-0.00104063	0.0233287
20554	-0.0012123	0.0228327
20593	-0.00104063	0.0230579
20632	-0.000716375	0.0229026
20671	-0.00083082	0.0228329
20710	-0.000983412	0.0225076
20749	-0.00092619	0.0231765
20788	-0.00104063	0.0226681
20827	-0.00107878	0.022495
20866	-0.00104063	0.0221951
20905	-0.000888042	0.0224415
20944	-0.00102156	0.0226305
20983	-0.00117415	0.0225979
21022	-0.000754523	0.0226999
21061	-0.00092619	0.0227483
21100	-0.00125045	0.0230307
21139	-0.00100249	0.0223089
21178	-0.000945264	0.0221705
21217	-0.000868968	0.022038
21256	-0.00142212	0.0225682
21295	-0.000678227	0.022363
21334	-0.00134582	0.0223258
21373	-0.00123138	0.0222739
21412	-0.00100249	0.0224808
21451	-0.00115508	0.0222967
21490	-0.000735449	0.0216432
21529	-0.00113601	0.0214903
21568	-0.00111693	0.0215807
21607	-0.00102156	0.0223283
21646	-0.00134582	0.0220919
21685	-0.000907116	0.0220603
21724	-0.0012123	0.0218376
21763	-0.00107878	0.0226104
21802	-0.00115508	0.0218558
21841	-0.000945264	0.0213068
21880	-0.00111693	0.0213296
21919	-0.00111693	0.0220569
21958	-0.000945264	0.0217996
21997	-0.00092619	0.0213789
22036	-0.00104063	0.0212613
22075	-0.000907116	0.0213917
22114	-0.000773597	0.0218294
22153	-0.000659153	0.0213452
22192	-0.00146027	0.0212409
22231	-0.00104063	0.0211629
22270	-0.00115508	0.0219053
22309	-0.00113601	0.0215161
22348	-0.00109786	0.0212691
22387	-0.000868968	0.0210808
22426	-0.00115508	0.0215514
22465	-0.000773597	0.0216854
22504	-0.000811746	0.0215033
22543	-0.000945264	0.0211279
22582	-0.000659153	0.0212568
22621	-0.00138397	0.021579
22660	-0.0012886	0.02117
22699	-0.00111693	0.0213256
22738	-0.00100249	0.021533
22777	-0.00083082	0.0219846
22816	-0.00113601	0.0214158
22855	-0.00109786	0.0209715
22894	-0.000697301	0.0209458
22933	-0.00109786	0.0217564
22972	-0.000640079	0.0216805
23011	-0.00104063	0.0212428
23050	-0.00109786	0.0210502
23089	-0.00100249	0.0212966
23128	-0.00104063	0.0216357
23167	-0.00115508	0.0212206
23206	-0.00113601	0.0209798
23245	-0.00107878	0.0207564
23284	-0.000868968	0.0213208
23323	-0.00100249	0.0211532
23362	-0.000983412	0.0211529
23401	-0.000907116	0.0208513
23440	-0.00119323	0.0209683
23479	-0.00105971	0.0206949
23518	-0.00117415	0.0205494
23557	-0.00107878	0.0203742
23596	-0.000983412	0.0204987
23635	-0.000888042	0.0207309
23674	-0.00113601	0.0204557
23713	-0.00109786	0.0204808
23752	-0.00125045	0.020689
23791	-0.0012123	0.0213049
23830	-0.00111693	0.0207417
23869	-0.00100249	0.0205434
23908	-0.00092619	0.0202304
23947	-0.000964338	0.0206722
23986	-0.00105971	0.0204396
24025	-0.0012123	0.0204344
24064	-0.000964338	0.0205214
24103	-0.00105971	0.0206048
24142	-0.000907116	0.0208057
24181	-0.00100249	0.0203519
24220	-0.000849894	0.0201413
24259	-0.00111693	0.0198855
24298	-0.00134582	0.020382
24337	-0.00092619	0.0203044
24376	-0.00109786	0.0202721
24415	-0.00123138	0.0202677
24454	-0.00119323	0.020506
24493	-0.00102156	0.020111
24532	-0.000888042	0.0198882
24571	-0.00102156	0.0197618
24610	-0.000773597	0.0199644
24649	-0.0012886	0.0199115
24688	-0.00100249	0.0196395
24727	-0.000735449	0.0199371
24766	-0.00100249	0.0201029
24805	-0.000697301	0.020617
24844	-0.00105971	0.0202681
24883	-0.000792671	0.0201975
24922	-0.00142212	0.0200863
24961	-0.000945264	0.0202644
25000	-0.00126952	0.0200856
25039	-0.000983412	0.0199363
25078	-0.00104063	0.019704
25117	-0.00092619	0.0198233
25156	-0.00109786	0.0198599
25195	-0.00119323	0.0196022
25234	-0.500877	-0.723628
25273	-0.501221	-0.4657
25312	-0.500496	-0.360205
25351	-0.50082	-0.297994
25390	-0.501087	-0.25742
25429	-0.500877	-0.228244
25468	-0.50042	-0.206452
25507	-0.500897	-0.18839
25546	-0.50103	-0.173856
25585	-0.500858	-0.161929
25624	-0.500229	-0.152197
25663	-0.500935	-0.143312
25702	-0.500782	-0.135599
25741	-0.500839	-0.12885
25780	-0.500935	-0.122849
25819	-0.500801	-0.117701
25858	-0.500782	-0.112786
25897	-0.500897	-0.108761
25936	-0.500801	-0.105144
25975	-0.50082	-0.101865
26014	-0.501011	-0.0980643
26053	-0.500935	-0.0950019
26092	-0.500897	-0.0923314
26131	-0.000735449	0.728077
26170	-0.00104063	0.358371
26209	-0.00102156	0.237083
26248	-0.00109786	0.178389
26287	-0.0012123	0.144035
26326	-0.000697301	0.121979
26365	-0.0012886	0.105312
26404	-0.00123138	0.0936783
26443	-0.00117415	0.084803
26482	-0.00126952	0.0783909
26521	-0.000964338	0.0719295
26560	-0.000888042	0.0668887
26599	-0.00126952	0.0628825
26638	-0.00130767	0.0600126
26677	-0.0012123	0.0569854
26716	-0.0012886	0.0541005
26755	-0.000907116	0.051859
26794	-0.00115508	0.0499088
26833	-0.00105971	0.0485925
26872	-0.00102156	0.0467565
26911	-0.00125045	0.0452162
26950	-0.000735449	0.0439028
26989	-0.000735449	0.0431592
27028	-0.000754523	0.0418559
27067	-0.000773597	0.0409443
27106	-0.00113601	0.0400444
27145	-0.00111693	0.0395278
27184	-0.00100249	0.0385377
27223	-0.00134582	0.037588
27262	-0.000849894	0.0367112
27301	-0.000754523	0.0363727
27340	-0.00113601	0.0360595
27379	-0.00113601	0.0354718
27418	-0.00132675	0.0347559
27457	-0.00155564	0.0338481
27496	-0.00149841	0.0336984
27535	-0.00125045	0.0329047
27574	-0.00104063	0.0324242
27613	-0.000983412	0.0322209
27652	-0.00168915	0.0323895
27691	-0.00111693	0.0319641
27730	-0.00092619	0.031549
27769	-0.00123138	0.031297
27808	-0.00107878	0.0310465
27847	-0.00146027	0.0308822
27886	-0.00113601	0.0303327
27925	-0.000582856	0.0302371
27964	-0.00083082	0.0299254
28003	-0.000735449	0.029996
28042	-0.00100249	0.0294218
28081	-0.00104063	0.0290298
28120	-0.00134582	0.0287301
28159	-0.00104063	0.0288223
28198	-0.000964338	0.028399
28237	-0.00104063	0.0278776
28276	-0.000544708	0.0276505
28315	-0.00113601	0.0279934
28354	-0.00092619	0.0278372
28393	-0.00092619	0.0271463
28432	-0.00115508	0.0267419
28471	-0.00125045	0.0266112
28510	-0.0012886	0.0271492
28549	-0.00107878	0.0267459
28588	-0.00092619	0.026571
28627	-0.00136489	0.0260994
28666	-0.00100249	0.0261213
28705	-0.00117415	0.0256102
28744	-0.00117415	0.0253025
28783	-0.000849894	0.025159
28822	1.49954	6.55291
28861	1.49918	3.56188
28900	1.49944	2.86754
28939	1.49891	2.50006
28978	1.49933	2.27543
29017	1.49952	2.10103
29056	1.49942	2.018
29095	1.49919	1.95065
29134	1.49939	1.89489
29173	1.49971	1.83091
29212	1.49937	1.79256
29251	1.49878	1.77916
29290	1.49942	1.75123
29329	1.49937	1.71874
29368	1.49887	1.66351
29407	1.49914	1.66806
29446	1.49923	1.64502
29485	1.49961	1.62237
29524	1.49952	1.55875
29563	1.49939	1.57374
29602	1.49921	1.5796
29641	1.49923	1.56786
29680	1.49925	1.5252
29719	1.49925	1.51559
29758	1.49921	1.54781
29797	1.49944	1.54363
29836	1.4987	1.52566
29875	1.4996	1.46974
29914	1.49921	1.5173
29953	1.49931	1.52557
29992	1.4996	1.52515
30031	1.4991	1.4471
30070	1.49971	1.47074
30109	1.49933	1.49088
30148	1.49929	1.49346
30187	1.49946	1.45398
30226	1.49931	1.43751
30265	1.49944	1.47763
30304	1.49912	1.49186
30343	1.49912	1.48408
30382	1.49912	1.41395
30421	1.49937	1.4609
30460	1.49935	1.48344
30499	1.4994	1.48907
30538	1.49969	1.40994
30577	1.49935	1.43643
30616	-0.000983412	-1.54063
30655	-0.000773597	-0.18544
30694	-0.000964338	-0.0510865
30733	-0.000735449	-0.0194127
30772	-0.00109786	-0.00518513
30811	-0.00092619	0.00165854
30850	-0.00105971	0.00671177
30889	-0.00092619	0.00923559
30928	-0.00117415	0.0106981
30967	-0.000792671	0.0125164
31006	-0.000697301	0.0134058
31045	-0.00100249	0.0148089
31084	-0.000868968	0.0149454
31123	-0.000945264	0.0156593
31162	-0.00111693	0.016132
31201	-0.00102156	0.0173435
31240	-0.000983412	0.0171336
31279	-0.000868968	0.0169736
31318	-0.00105971	0.0171704
31357	-0.00107878	0.0180024
31396	-0.000964338	0.0179029
31435	-0.00130767	0.0176503
31474	-0.000983412	0.0180275
31513	-0.00134582	0.0180333
31552	-0.00107878	0.0183179
31591	-0.000849894	0.0182368
31630	-0.000811746	0.0182642
31669	-0.00104063	0.0185982
31708	-0.00115508	0.0188778
31747	-0.00107878	0.0183454
31786	-0.000868968	0.0184701
31825	-0.000945264	0.0183908
31864	-0.000811746	0.0190551
31903	-0.000716375	0.0187759
31942	-0.000868968	0.0183688
31981	-0.00113601	0.0182677
32020	-0.00111693	0.0185045
32059	-0.000735449	0.0187109
32098	-0.00092619	0.01824
32137	-0.00111693	0.0183944
32176	-0.00105971	0.0183968
32215	-0.000945264	0.0187659
32254	-0.00083082	0.0182769
32293	-0.00111693	0.0183945
32332	-0.00104063	0.0182959
32371	-0.00125045	0.0186025
32410	-0.00104063	0.0183213
32449	-0.000983412	0.0180405
32488	-0.000888042	0.01821
32527	-0.000983412	0.0183601
32566	-0.00100249	0.0183844
32605	-0.00105971	0.0179757
32644	-0.0012123	0.0181503
32683	-0.000964338	0.018049
32722	-0.000811746	0.0184081
32761	-0.00107878	0.0179212
32800	-0.00105971	0.0177671
32839	-0.00115508	0.0177753
32878	-0.000849894	0.0181437
32917	-0.00105971	0.0180387
32956	-0.000735449	0.0179763
32995	-0.000868968	0.0178281
33034	-0.000621005	0.0178365
33073	-0.00083082	0.0179561
33112	-0.000888042	0.0175805
33151	-0.00083082	0.0176493
33190	-0.00109786	0.0176086
33229	-0.00142212	0.0178975
33268	-0.000868968	0.0174112
33307	-0.00107878	0.0174876
33346	-0.000582856	0.0174541
33385	-0.00130767	0.0179163
33424	-0.00109786	0.0175118
33463	-0.00134582	0.0173003
33502	-0.00123138	0.0171813
33541	-0.00132675	0.0174524
33580	-0.00126952	0.0175189
33619	-0.00117415	0.0170887
33658	-0.00117415	0.0171598
33697	-0.00083082	0.0171509
33736	-0.00123138	0.0174366
33775	-0.000849894	0.0169965
33814	-0.00083082	0.0169177
33853	-0.00100249	0.0169014
33892	-0.00083082	0.0173267
33931	-0.00111693	0.0170172
33970	-0.00104063	0.0167696
34009	-0.00113601	0.0168416
34048	-0.00125045	0.0170284
34087	-0.000983412	0.0169241
34126	-0.000964338	0.0167818
34165	-0.00117415	0.0167726
34204	-0.000697301	0.0168145
34243	-0.00113601	0.0170143
34282	-0.000640079	0.016607
34321	-0.000964338	0.0165681
34360	-0.00105971	0.0165244
34399	-0.000907116	0.0170168
34438	-0.00117415	0.0166044
34477	-0.00113601	0.0164409
34516	-0.000849894	0.0163585
34555	-0.000868968	0.0164186
34594	-0.00092619	0.0165394
34633	-0.000945264	0.0162346
34672	-0.000964338	0.0162501
34711	-0.00113601	0.0163231
34750	-0.000945264	0.0166331
34789	-0.000754523	0.0162388
34828	-0.00125045	0.0160985
34867	-0.00100249	0.0160262
34906	-0.00104063	0.0164286
34945	-0.000868968	0.0161319
34984	-0.00125045	0.0160505
35023	-0.000868968	0.0159991
35062	-0.000640079	0.0163413
35101	-0.00109786	0.0161696
35140	-0.00119323	0.0158894
35179	-0.00100249	0.0158612
35218	-0.00109786	0.0159652
35257	-0.00149841	0.0161309
35296	-0.00105971	0.0157758
35335	-0.000945264	0.0158164
35374	-0.00083082	0.0157944
35413	-0.00126952	0.0161111
35452	-0.00100249	0.0158033
35491	-0.000983412	0.0157607
35530	-0.00100249	0.0158067
35569	-0.000735449	0.0158646
35608	-0.00117415	0.0157801
35647	-0.00107878	0.0156444
35686	-0.000983412	0.0155742
35725	-0.000907116	0.0156458
35764	-0.00125045	0.0158226
35803	-0.000773597	0.0155029
35842	-0.00105971	0.0155335
35881	-0.00142212	0.0155169
35920	-0.00092619	0.0158061
35959	-0.00109786	0.0153986
35998	-0.000811746	0.0153931
36037	-0.00100249	0.0153247
36076	-0.000754523	0.0156218
36115	-0.00113601	0.0155192
36154	-0.00113601	0.0154075
36193	-0.00126952	0.0154836
36232	-0.00107878	0.0155066
36271	-0.00092619	0.0156421
36310	-0.000449338	0.0151928
36349	-0.00151749	0.0150414
36388	-0.00109786	0.0149687
36427	-0.00123138	0.0153467
36466	-0.00107878	0.0150227
36505	-0.000716375	0.0150563
36544	-0.000716375	0.0151578
36583	-0.00100249	0.0152674
36622	-0.00109786	0.0150373
36661	-0.00111693	0.0149975
36700	-0.00102156	0.0151459
36739	-0.00107878	0.0152215
36778	-0.00102156	0.0153221
36817	-0.000773597	0.0148496
36856	-0.00100249	0.0148231
36895	-0.000811746	0.0148121
36934	-0.000888042	0.0151449
36973	-0.000983412	0.0149376
37012	-0.000945264	0.0148164
37051	-0.00136489	0.0147948
37090	-0.00102156	0.0150803
37129	-0.00138397	0.0148468
37168	-0.0012123	0.0147262
37207	-0.00050656	0.0147092
37246	-0.000582856	0.0147465
37285	-0.00115508	0.0148295
37324	-0.00105971	0.0145065
37363	-0.00136489	0.0146829
37402	-0.00132675	0.0145826
37441	-0.000659153	0.0148222
37480	-0.00113601	0.0146662
37519	-0.000868968	0.014549
37558	-0.000811746	0.0144737
37597	-0.00092619	0.0146469
37636	-0.000907116	0.0146588
37675	-0.00134582	0.0145117
37714	-0.0012886	0.0145728
37753	-0.00111693	0.0145301
37792	-0.00100249	0.0145136
37831	-0.000716375	0.0143413
37870	-0.00109786	0.0143117
37909	-0.000582856	0.0144205
37948	-0.000888042	0.0146182
37987	-0.000888042	0.0142793
38026	-0.00105971	0.0143343
38065	-0.00119323	0.0144119
38104	-0.00119323	0.0144891
38143	-0.00119323	0.0142736
38182	-0.000868968	0.0142035
38221	-0.00109786	0.0143157
38260	-0.00117415	0.0144116
38299	-0.000849894	0.0143378
38338	-0.00119323	0.0141871
38377	-0.00109786	0.0142365
38416	-0.000964338	0.0141919
38455	-0.00104063	0.014462
38494	-0.00115508	0.0141532
38533	-0.000811746	0.0140932
38572	-0.00104063	0.0141608
38611	-0.00138397	0.0143665
38650	-0.000678227	0.0140707
38689	-0.000716375	0.0141872
38728	-0.000868968	0.014094
38767	-0.000907116	0.0140042
38806	-0.00134582	0.0140893
38845	-0.00142212	0.0139788
38884	-0.00100249	0.0139812
38923	-0.00104063	0.0140816
38962	-0.00083082	0.0143426
39001	-0.000964338	0.0139505
39040	-0.00083082	0.013906
39079	-0.00105971	0.0139641
39118	-0.00105971	0.0142012
39157	-0.00123138	0.0139772
39196	-0.00104063	0.0138968
39235	-0.000964338	0.0138306
39274	-0.00105971	0.013981
39313	-0.000773597	0.0139353
39352	-0.00117415	0.0137393
39391	-0.00105971	0.0138626
39430	-0.00102156	0.0136713
39469	-0.00107878	0.0139976
39508	-0.00144119	0.0137424
39547	-0.00115508	0.0136546
39586	-0.00102156	0.0136004
39625	-0.501145	-0.679113
39664	-0.500858	-0.396441
39703	-0.500992	-0.300985
39742	-0.500935	-0.24834
39781	-0.500935	-0.214165
39820	-0.500839	-0.189257
39859	-0.501545	-0.170026
39898	-0.501259	-0.155109
39937	-0.500858	-0.142804
39976	-0.501431	-0.132802
40015	-0.500706	-0.12383
40054	-0.50082	-0.116247
40093	-0.500725	-0.109719
40132	-0.500801	-0.104239
40171	-0.500858	-0.0989009
40210	-0.500973	-0.0943485
40249	-0.500954	-0.090179
40288	-0.501011	-0.086574
40327	-0.500629	-0.0831465
40366	-0.500858	-0.0800537
40405	-0.501145	-0.0772527
40444	-0.500839	-0.0746521
40483	-0.500801	-0.0722549
40522	-0.000983412	0.711106
40561	-0.00105971	0.306195
40600	-0.000659153	0.196969
40639	-0.000582856	0.146697
40678	-0.000964338	0.116875
40717	-0.000945264	0.0978952
40756	-0.00109786	0.0846951
40795	-0.00109786	0.075443
40834	-0.00105971	0.067818
40873	-0.000983412	0.0616833
40912	-0.00117415	0.0570894
40951	-0.000945264	0.0532087
40990	-0.0012886	0.0502266
41029	-0.00105971	0.0470356
41068	-0.0012123	0.0447619
41107	-0.00083082	0.0427359
41146	-0.00104063	0.0414746
41185	-0.00107878	0.0394978
41224	-0.00117415	0.0380032
41263	-0.00115508	0.0367427
41302	-0.000888042	0.0357501
41341	-0.000754523	0.0346812
41380	-0.00109786	0.0335657
41419	-0.000888042	0.032805
41458	-0.00100249	0.0320388
41497	-0.00113601	0.0314418
41536	-0.000964338	0.0305135
41575	-0.000697301	0.0298689
41614	-0.00107878	0.0293328
41653	-0.000868968	0.0290885
41692	-0.00111693	0.0282631
41731	-0.000945264	0.0278239
41770	-0.00107878	0.0273766
41809	-0.00109786	0.0270084
41848	-0.000811746	0.026578
41887	-0.000544708	0.0260285
41926	-0.000945264	0.0257531
41965	-0.00083082	0.0254716
42004	-0.00107878	0.0253516
42043	-0.00105971	0.0247746
42082	-0.000697301	0.0244972
42121	-0.00105971	0.0242208
42160	-0.000945264	0.0241442
42199	-0.000811746	0.0236546
42238	-0.000849894	0.0234012
42277	-0.000983412	0.0232102
42316	-0.00104063	0.0231098
42355	-0.00140304	0.0227266
42394	-0.000716375	0.0224805
42433	-0.00107878	0.0222914
42472	-0.00125045	0.0222844
42511	-0.00144119	0.022103
42550	-0.00115508	0.0217605
42589	-0.000945264	0.0215915
42628	-0.000563782	0.021405
42667	-0.00104063	0.0214578
42706	-0.00104063	0.0210606
42745	-0.0012123	0.0208612
42784	-0.00092619	0.0206895
42823	-0.00107878	0.0207947
42862	-0.00109786	0.0205137
42901	-0.000907116	0.0203772
42940	-0.000907116	0.020218
42979	-0.00107878	0.0201421
43018	-0.000735449	0.0200937
43057	-0.00092619	0.0197916
43096	-0.000964338	0.019669
43135	-0.00123138	0.0195581
43174	-0.00104063	0.0196237
43213	1.49939	8.63276
43252	1.49958	3.18409
43291	1.49929	2.44929
43330	1.49914	2.11525
43369	1.49925	1.90071
43408	1.4995	1.83481
43447	1.49874	1.7687
43486	1.49923	1.71929
43525	1.49933	1.61508
43564	1.4995	1.63802
43603	1.49944	1.64403
43642	1.49923	1.63789
43681	1.4994	1.55813
43720	1.49925	1.55342
43759	1.49925	1.58848
43798	1.49914	1.59315
43837	1.49933	1.56093
43876	1.49933	1.505
43915	1.49921	1.55053
43954	1.49912	1.56117
43993	1.49916	1.55065
44032	1.49942	1.47796
44071	1.49935	1.52532
44110	1.49952	1.55114
44149	1.49923	1.55273
44188	1.49933	1.48037
44227	1.49937	1.47888
44266	1.49929	1.53443
44305	1.49916	1.54906
44344	1.49939	1.51874
44383	1.49939	1.47131
44422	1.49933	1.51099
44461	1.49931	1.53145
44500	1.4994	1.5315
44539	1.49931	1.44733
44578	1.49967	1.4924
44617	1.49927	1.50097
44656	1.49939	1.52503
44695	1.49952	1.45016
44734	1.49965	1.46259
44773	1.49931	1.49852
44812	1.49923	1.50443
44851	1.49929	1.48062
44890	1.49879	1.43245
44929	1.49931	1.482
44968	1.49919	1.51514
45007	-0.00104063	-4.40177
45046	-0.00102156	-0.355766
45085	-0.00105971	-0.148535
45124	-0.00126952	-0.0821573
45163	-0.00102156	-0.0509422
45202	-0.00109786	-0.0332565
45241	-0.00105971	-0.022531
45280	-0.00136489	-0.0147438
45319	-0.00102156	-0.00934727
45358	-0.00123138	-0.00475667
45397	-0.0012123	-0.00187582
45436	-0.00130767	0.000681029
45475	-0.000849894	0.00270305
45514	-0.000907116	0.00464956
45553	-0.0012886	0.00578664
45592	-0.000849894	0.00640479
45631	-0.0012123	0.00769263
45670	-0.000964338	0.00858985
45709	-0.00104063	0.00965962
45748	-0.000888042	0.00979201
45787	-0.00105971	0.0104078
45826	-0.000697301	0.0109832
45865	-0.000754523	0.0118524
45904	-0.00125045	0.011658
45943	-0.00105971	0.011888
45982	-0.000697301	0.0122043
46021	-0.000868968	0.0127975
46060	-0.000888042	0.0126116
46099	-0.00105971	0.0126856
46138	-0.00109786	0.0129462
46177	-0.00104063	0.0132221
46216	-0.000849894	0.0135088
46255	-0.00115508	0.0132081
46294	-0.00100249	0.0133766
46333	-0.00113601	0.0134868
46372	-0.00119323	0.014122
46411	-0.00104063	0.0136602
46450	-0.00100249	0.0137001
46489	-0.0012886	0.0137389
46528	-0.00111693	0.0140539
46567	-0.00083082	0.0139307
46606	-0.0012123	0.0138538
46645	-0.000868968	0.0139526
46684	-0.000964338	0.0140922
46723	-0.00105971	0.0142072
46762	-0.000659153	0.013941
46801	-0.00109786	0.0140225
46840	-0.00111693	0.0140068
46879	-0.00102156	0.0144
46918	-0.000659153	0.0139916
46957	-0.00111693	0.0140581
46996	-0.00132675	0.0139884
47035	-0.00102156	0.0144051
47074	-0.00102156	0.0141553
47113	-0.000983412	0.0140106
47152	-0.000907116	0.0140327
47191	-0.000640079	0.0140218
47230	-0.000888042	0.014193
47269	-0.000907116	0.0138829
47308	-0.00083082	0.013944
47347	-0.000907116	0.013959
47386	-0.00100249	0.0142542
47425	-0.00113601	0.0139231
47464	-0.000964338	0.0138448
47503	-0.00092619	0.0138955
47542	-0.00060193	0.0141424
47581	-0.00104063	0.0138822
47620	-0.00100249	0.0137672
47659	-0.00111693	0.0137772
47698	-0.00119323	0.0138504
47737	-0.00107878	0.0139611
47776	-0.000678227	0.0137045
47815	-0.00130767	0.0137592
47854	-0.00119323	0.0137097
47893	-0.00105971	0.0139834
47932	-0.000983412	0.0135796
47971	-0.00111693	0.0136653
48010	-0.00109786	0.0136147
48049	-0.00119323	0.0139065
48088	-0.00113601	0.0135797
48127	-0.00153656	0.0134526
48166	-0.000983412	0.0136207
48205	-0.000983412	0.0135852
48244	-0.000945264	0.013693
48283	-0.00083082	0.0134065
48322	-0.000888042	0.0134014
48361	-0.000792671	0.0133882
48400	-0.00125045	0.0136517
48439	-0.00060193	0.0133022
48478	-0.00153656	0.0132653
48517	-0.00142212	0.013333
48556	-0.00115508	0.0136048
48595	-0.00105971	0.0133106
48634	-0.00113601	0.0132448
48673	-0.000659153	0.0132176
48712	-0.000983412	0.0133739
48751	-0.000525634	0.0134145
48790	-0.000907116	0.0131725
48829	-0.00109786	0.0131629
48868	-0.000849894	0.0131812
48907	-0.00126952	0.0133383
48946	-0.00113601	0.0130084
48985	-0.00102156	0.0130571
49024	-0.000754523	0.013033
49063	-0.00119323	0.013249
49102	-0.000945264	0.0130391
49141	-0.00083082	0.0129561
49180	-0.00100249	0.0129629
49219	-0.00113601	0.0130003
49258	-0.00113601	0.0129963
49297	-0.00092619	0.0128584
49336	-0.00104063	0.0129195
49375	-0.00105971	0.0129197
49414	-0.00113601	0.0130813
49453	-0.000754523	0.0128038
49492	-0.000716375	0.0128405
49531	-0.00107878	0.0127848
49570	-0.00109786	0.012938
49609	-0.00109786	0.0127094
49648	-0.00102156	0.0126558
49687	-0.00083082	0.0127061
49726	-0.000888042	0.0128085
49765	-0.000964338	0.0127253
49804	-0.00083082	0.0125553
49843	-0.00113601	0.0125704
49882	-0.00104063	0.0126078
49921	-0.000888042	0.0128206
49960	-0.00126952	0.012452
49999	-0.00105971	0.0124637
50038	-0.00102156	0.0124732
50077	-0.000945264	0.0126611
50116	-0.000735449	0.0124415
50155	-0.00107878	0.0123737
50194	-0.00104063	0.0124082
50233	-0.000811746	0.0124892
50272	-0.00136489	0.012446
50311	-0.00115508	0.0122988
50350	-0.00111693	0.0123581
50389	-0.00125045	0.012338
50428	-0.000983412	0.0124404
50467	-0.00111693	0.0122341
50506	-0.00109786	0.0122162
50545	-0.00107878	0.0121728
50584	-0.00105971	0.012344
50623	-0.000811746	0.012168
50662	-0.00109786	0.0121156
50701	-0.00130767	0.012164
50740	-0.00100249	0.0122549
50779	-0.00125045	0.0121335
50818	-0.00105971	0.0120585
50857	-0.00109786	0.0119742
50896	-0.000563782	0.0120484
50935	-0.00100249	0.0121804
50974	-0.00105971	0.0119266
51013	-0.000163226	0.0120031
51052	-0.00109786	0.0119144
51091	-0.00117415	0.0121391
51130	-0.00115508	0.0119301
51169	-0.000811746	0.011872
51208	-0.000449338	0.0118979
51247	-0.00113601	0.0119727
51286	-0.000868968	0.0119245
51325	-0.000945264	0.0117776
51364	-0.00123138	0.0117927
51403	-0.00107878	0.0118135
51442	-0.000868968	0.0119227
51481	-0.00104063	0.0117148
51520	-0.000945264	0.0117731
51559	-0.00104063	0.0117107
51598	-0.0012123	0.0119275
51637	-0.000716375	0.0116804
51676	-0.000983412	0.0115888
51715	-0.000849894	0.0116756
51754	-0.00107878	0.0118819
51793	-0.00104063	0.011712
51832	-0.000983412	0.0116159
51871	-0.00100249	0.0116266
51910	-0.000964338	0.0116231
51949	-0.00092619	0.0117134
51988	-0.00107878	0.0115133
52027	-0.00125045	0.0114923
52066	-0.00102156	0.0114817
52105	-0.00125045	0.0116708
52144	-0.00107878	0.0114828
52183	-0.000983412	0.0114342
52222	-0.00100249	0.0114331
52261	-0.00113601	0.0116008
52300	-0.000678227	0.0113992
52339	-0.000449338	0.0112714
52378	-0.000811746	0.0113844
52417	-0.00115508	0.0114746
52456	-0.00105971	0.0115441
52495	-0.00111693	0.0113013
52534	-0.0012123	0.0113455
52573	-0.000907116	0.0113478
52612	-0.000868968	0.0115154
52651	-0.000983412	0.0112442
52690	-0.000983412	0.0112659
52729	-0.00138397	0.0113289
52768	-0.000868968	0.0114623
52807	-0.00109786	0.011327
52846	-0.0012886	0.0112164
52885	-0.00117415	0.0111746
52924	-0.00134582	0.0111933
52963	-0.00104063	0.0112662
53002	-0.00104063	0.0110651
53041	-0.00105971	0.0111274
53080	-0.00102156	0.0111103
53119	-0.00092619	0.0113327
53158	-0.0012123	0.0110817
53197	-0.00109786	0.0110863
53236	-0.00134582	0.0110979
53275	-0.000868968	0.0112281
53314	-0.000735449	0.0110258
53353	-0.00104063	0.0110373
53392	-0.00115508	0.0110163
53431	-0.00104063	0.0110297
53470	-0.000983412	0.0110724
53509	-0.000964338	0.0109339
53548	-0.000868968	0.010943
53587	-0.00119323	0.0109563
53626	-0.00083082	0.0110789
53665	-0.000792671	0.0109244
53704	-0.000659153	0.0108908
53743	-0.00102156	0.0109146
53782	-0.00104063	0.0111133
53821	-0.000621005	0.0108984
53860	-0.000888042	0.0107996
53899	-0.000868968	0.0108543
53938	-0.000563782	0.0109009
53977	-0.00111693	0.010715
54016	-0.500973	-0.890036
54055	-0.500973	-0.400712
54094	-0.500515	-0.288792
54133	-0.500858	-0.233955
54172	-0.501068	-0.198673
54211	-0.500858	-0.174578
54250	-0.500668	-0.156466
54289	-0.50082	-0.142511
54328	-0.500973	-0.130796
54367	-0.500877	-0.121062
54406	-0.501221	-0.113047
54445	-0.501221	-0.106152
54484	-0.500591	-0.100086
54523	-0.50082	-0.0946989
54562	-0.500897	-0.0899418
54601	-0.500382	-0.0856164
54640	-0.500725	-0.0819291
54679	-0.501011	-0.078311
54718	-0.500992	-0.0751734
54757	-0.500916	-0.072208
54796	-0.501202	-0.0695718
54835	-0.500801	-0.0671783
54874	-0.500839	-0.0648337
54913	-0.00144119	0.899136
54952	-0.00123138	0.294504
54991	-0.00083082	0.181926
55030	-0.00100249	0.132331
55069	-0.000621005	0.104757
55108	-0.000964338	0.0872182
55147	-0.000868968	0.0753992
55186	-0.00083082	0.0661742
55225	-0.00105971	0.059513
55264	-0.00109786	0.0542569
55303	-0.000945264	0.0503323
55342	-0.000888042	0.0463641
55381	-0.00126952	0.0434699
55420	-0.000849894	0.0409896
55459	-0.00125045	0.0389948
55498	-0.00119323	0.0372621
55537	-0.00109786	0.0353203
55576	-0.00117415	0.0339608
55615	-0.000792671	0.0327113
55654	-0.00149841	0.0317173
55693	-0.00144119	0.0303955
55732	-0.000868968	0.0294049
55771	-0.00123138	0.0286874
55810	-0.000678227	0.0280955
55849	-0.000716375	0.0272191
55888	-0.00111693	0.0264969
55927	-0.00083082	0.0259589
55966	-0.0012123	0.0255242
56005	-0.00109786	0.0248802
56044	-0.000735449	0.024315
56083	-0.00104063	0.0239801
56122	-0.00092619	0.0234812
56161	-0.00100249	0.0231288
56200	-0.000964338	0.022615
56239	-0.00117415	0.0222906
56278	-0.000983412	0.0219736
56317	-0.0012886	0.0217403
56356	-0.00107878	0.0213137
56395	-0.000754523	0.0210276
56434	-0.000983412	0.0206537
56473	-0.000907116	0.0205742
56512	-0.000983412	0.0201977
56551	-0.00146027	0.0199116
56590	-0.000907116	0.019738
56629	-0.00105971	0.0194913
56668	-0.00060193	0.0194353
56707	-0.00123138	0.0190612
56746	-0.00136489	0.0188443
56785	-0.00109786	0.0186643
56824	-0.00092619	0.0187179
56863	-0.00107878	0.0182743
56902	-0.00107878	0.0181492
56941	-0.00105971	0.0179592
56980	-0.000945264	0.017871
57019	-0.00092619	0.0177258
57058	-0.00107878	0.0174632
57097	-0.00104063	0.0173529
57136	-0.00130767	0.0171618
57175	-0.00105971	0.0172359
57214	-0.000964338	0.0169522
57253	-0.000678227	0.0167903
57292	-0.0017273	0.0167493
57331	-0.00119323	0.016877
57370	-0.00123138	0.0164584
57409	-0.00092619	0.0163081
57448	-0.00109786	0.0162528
57487	-0.000945264	0.0162752
57526	-0.000868968	0.0160763
57565	-0.00092619	0.015899
57600	-0.000945264	0.0159743