File: Data_06_Experiment/CA_001_C01.txt
time/s	Ewe/V	<I>/mA
1	1.49933	45.0198
40	1.49921	4.21863
79	1.49931	3.23082
118	1.49946	2.80212
157	1.49927	2.63802
196	1.49937	2.56433
235	1.49921	2.51953
274	1.4994	2.44174
313	1.49944	2.3772
352	1.49929	2.40349
391	1.49933	2.40884
430	1.49923	2.39537
469	1.49918	2.29609
508	1.49931	2.33429
547	1.49931	2.34645
586	1.49939	2.35222
625	1.4994	2.28036
664	1.49921	2.27655
703	1.49933	2.29948
742	1.49929	2.31416
781	1.49918	2.27652
820	1.49921	2.22328
859	1.49933	2.246
898	1.49929	2.26204
937	1.49931	2.25451
976	1.49923	2.18145
1015	1.49931	2.18583
1054	1.49918	2.19518
1093	1.49942	2.2093
1132	1.49925	2.13347
1171	1.49933	2.07869
1210	1.49937	2.10981
1249	1.49929	2.14721
1288	1.49923	2.11238
1327	1.49942	2.06068
1366	1.49925	2.06758
1405	1.49918	2.09281
1444	1.49939	2.12125
1483	1.49925	2.04409
1522	1.49933	2.02563
1561	1.49927	2.05486
1600	1.49925	2.06557
1639	1.49929	2.02232
1678	1.49919	2.00492
1717	1.49925	2.02457
1756	1.49939	2.03635
1795	1.4994	2.00595
1833.95	-0.00102156	-0.54123
1872.98	-0.000907116	-0.21354
1911.98	-0.00100249	-0.119711
1950.98	-0.000983412	-0.0751599
1989.98	-0.00105971	-0.052848
2028.98	-0.000888042	-0.037559
2067.98	-0.00104063	-0.026707
2106.98	-0.000945264	-0.0177842
2145.98	-0.00109786	-0.012932
2184.98	-0.000983412	-0.00934752
2223.98	-0.00115508	-0.00545676
2262.98	-0.000964338	-0.00234392
2301.98	-0.00107878	0.00105086
2340.98	-0.000983412	0.00132733
2379.98	-0.00100249	0.00350892
2418.98	-0.00109786	0.00491077
2457.98	-0.00102156	0.00775934
2496.98	-0.000983412	0.00683813
2535.98	-0.00107878	0.00820522
2574.98	-0.00111693	0.00914185
2613.98	-0.000983412	0.0110426
2652.98	-0.00100249	0.0107209
2691.98	-0.00107878	0.0107597
2730.98	-0.00109786	0.0116761
2769.98	-0.00092619	0.0122228
2808.98	-0.00109786	0.0133386
2847.98	-0.00100249	0.0123281
2886.98	-0.00092619	0.0130668
2925.98	-0.000811746	0.0134479
2964.98	-0.00107878	0.0153671
3003.98	-0.00102156	0.0138131
3042.98	-0.00105971	0.0141463
3081.98	-0.00113601	0.0146084
3120.98	-0.000983412	0.0156878
3159.98	-0.00100249	0.0150159
3198.98	-0.000964338	0.014831
3237.98	-0.00102156	0.0152679
3276.98	-0.00092619	0.0156318
3315.98	-0.000888042	0.0161646
3354.98	-0.000849894	0.0153792
3393.98	-0.00092619	0.0157991
3432.98	-0.000868968	0.0157419
3471.98	-0.00104063	0.0169605
3510.98	-0.00111693	0.0156737
3549.98	-0.00113601	0.0160233
3588.98	-0.00105971	0.0161788
3627.98	-0.000964338	0.0173573
3666.98	-0.00105971	0.0164892
3705.98	-0.00113601	0.0164004
3744.98	-0.00111693	0.0165099
3783.98	-0.00105971	0.0167925
3822.98	-0.00113601	0.0169202
3861.98	-0.00109786	0.0162779
3900.98	-0.00107878	0.0167422
3939.98	-0.000945264	0.0168558
3978.98	-0.00119323	0.0176841
4017.98	-0.00092619	0.0164616
4056.98	-0.00105971	0.0166386
4095.98	-0.00107878	0.0169522
4134.98	-0.00113601	0.0176614
4173.98	-0.00100249	0.0168225
4212.98	-0.00102156	0.0166981
4251.98	-0.00107878	0.0169627
4290.98	-0.00115508	0.017328
4329.98	-0.00107878	0.0173203
4368.98	-0.00104063	0.0166182
4407.98	-0.00107878	0.0170127
4446.98	-0.000964338	0.0170634
4485.98	-0.00092619	0.0177245
4524.98	-0.00105971	0.0167228
4563.98	-0.00107878	0.0168878
4602.98	-0.00100249	0.0168517
4641.98	-0.00104063	0.0179225
4680.98	-0.000888042	0.0171739
4719.98	-0.00092619	0.0169695
4758.98	-0.00107878	0.0170995
4797.98	-0.00092619	0.0172394
4836.98	-0.00102156	0.0172472
4875.98	-0.00113601	0.0168782
4914.98	-0.00102156	0.0170993
4953.98	-0.00107878	0.0170741
4992.98	-0.000983412	0.0177522
5031.98	-0.00100249	0.0168958
5070.98	-0.000945264	0.0171358
5109.98	-0.00107878	0.0170454
5148.98	-0.00102156	0.0178632
5187.98	-0.000983412	0.016975
5226.98	-0.000907116	0.0169429
5265.98	-0.000964338	0.0169735
5304.98	-0.00111693	0.0172841
5343.98	-0.00102156	0.0171331
5382.98	-0.00107878	0.0166691
5421.98	-0.00109786	0.0168307
5460.98	-0.000964338	0.0169937
5499.98	-0.000964338	0.0175404
5538.98	-0.00104063	0.0166951
5577.98	-0.000945264	0.0168711
5616.98	-0.00105971	0.0169122
5655.98	-0.000964338	0.0174072
5694.98	-0.00109786	0.0166247
5733.98	-0.00109786	0.0165729
5772.98	-0.00107878	0.016742
5811.98	-0.000945264	0.0171828
5850.98	-0.00113601	0.0170198
5889.98	-0.00105971	0.0166444
5928.98	-0.000983412	0.016728
5967.98	-0.00105971	0.016636
6006.98	-0.00111693	0.0171055
6045.98	-0.00102156	0.0163797
6084.98	-0.00107878	0.01667
6123.98	-0.000964338	0.0166782
6162.98	-0.00105971	0.0172162
6201.98	-0.00104063	0.0165616
6240.98	-0.00111693	0.0165888
6279.98	-0.00104063	0.0167376
6318.98	-0.00100249	0.0170775
6357.98	-0.00100249	0.0168052
6396.98	-0.000849894	0.0164703
6435.98	-0.00109786	0.0166245
6474.98	-0.000964338	0.0165467
6513.98	-0.00107878	0.0168809
6552.98	-0.000907116	0.0163371
6591.98	-0.00104063	0.0165657
6630.98	-0.00109786	0.0164581
6669.98	-0.00100249	0.0169999
6708.98	-0.00092619	0.016353
6747.98	-0.000907116	0.0164421
6786.98	-0.00100249	0.0163631
6825.98	-0.00100249	0.0166386
6864.98	-0.00104063	0.0164665
6903.98	-0.000945264	0.0162044
6942.98	-0.00117415	0.0163792
6981.98	-0.00104063	0.0164242
7020.98	-0.000964338	0.0166315
7059.98	-0.00105971	0.0160382
7098.98	-0.000945264	0.0162833
7137.98	-0.00100249	0.0162076
7176.98	-0.00104063	0.0166455
7215.98	-0.00109786	0.0160107
7254.98	-0.00111693	0.0160935
7293.98	-0.00111693	0.0160239
7332.98	-0.00111693	0.0163538
7371.98	-0.000983412	0.016112
7410.98	-0.00105971	0.0159907
7449.98	-0.00107878	0.0160887
7488.98	-0.00107878	0.0160337
7527.98	-0.00104063	0.0162279
7566.98	-0.000964338	0.0156836
7605.98	-0.000964338	0.015895
7644.98	-0.00113601	0.0158098
7683.98	-0.00109786	0.0162541
7722.98	-0.000964338	0.015712
7761.98	-0.000964338	0.015808
7800.98	-0.00113601	0.0158427
7839.98	-0.000945264	0.0161194
7878.98	-0.00107878	0.0158041
7917.98	-0.00100249	0.0156441
7956.98	-0.000983412	0.0157285
7995.98	-0.00083082	0.0158617
8034.98	-0.00111693	0.0159832
8073.98	-0.00105971	0.0155849
8112.98	-0.00113601	0.0156527
8151.98	-0.00092619	0.0156408
8190.98	-0.000983412	0.0159808
8229.98	-0.000964338	0.0154954
8268.98	-0.00119323	0.0156029
8307.98	-0.00119323	0.0155972
8346.98	-0.00111693	0.0157944
8385.98	-0.00102156	0.0155567
8424.98	-0.00102156	0.0153921
8463.98	-0.00115508	0.0155006
8502.98	-0.00100249	0.0155394
8541.98	-0.00102156	0.0157044
8580.98	-0.00104063	0.0152404
8619.98	-0.00109786	0.0153693
8658.98	-0.000964338	0.0154132
8697.98	-0.00115508	0.0158029
8736.98	-0.000964338	0.0152951
8775.98	-0.00109786	0.0153385
8814.98	-0.000964338	0.015337
8853.98	-0.00100249	0.0155953
8892.98	-0.00105971	0.0153262
8931.98	-0.00109786	0.0151727
8970.98	-0.00092619	0.0152763
9009.98	-0.00117415	0.0153827
9048.98	-0.000945264	0.015375
9087.98	-0.00104063	0.015077
9126.98	-0.00109786	0.0152672
9165.98	-0.00105971	0.0151573
9204.98	-0.000983412	0.0155179
9243.98	-0.00105971	0.0150186
9282.98	-0.00104063	0.0150676
9321.98	-0.00105971	0.0150724
9360.98	-0.00102156	0.0153379
9399.98	-0.00104063	0.0150048
9438.98	-0.00105971	0.0150233
9477.98	-0.00100249	0.0150514
9516.98	-0.00104063	0.0150854
9555.98	-0.00109786	0.0151413
9594.98	-0.00105971	0.0148428
9633.98	-0.000964338	0.0149755
9672.98	-0.00107878	0.0149167
9711.98	-0.00107878	0.015195
9750.98	-0.00100249	0.0147111
9789.98	-0.00092619	0.0147388
9828.98	-0.00107878	0.0148196
9867.98	-0.00105971	0.0151724
9906.98	-0.00100249	0.0148259
9945.98	-0.00100249	0.0147797
9984.98	-0.000964338	0.0147834
10024	-0.00102156	0.0149303
10063	-0.00113601	0.0148522
10102	-0.00104063	0.014576
10141	-0.00100249	0.0146864
10180	-0.00104063	0.0146943
10219	-0.00117415	0.0150002
10258	-0.00115508	0.0146136
10297	-0.000983412	0.0145682
10336	-0.00100249	0.0146465
10375	-0.00111693	0.0149028
10414	-0.00111693	0.0145327
10453	-0.00109786	0.0144436
10492	-0.00100249	0.0145814
10531	-0.00109786	0.0146243
10570	-0.000983412	0.0145722
10609	-0.00104063	0.0143801
10648	-0.00115508	0.0145369
10687	-0.00102156	0.0144564
10726	-0.000868968	0.014676
10765	-0.000907116	0.0142646
10804	-2.00085	-107.732
10843	-2.00096	-23.9842
10882	-2.00092	-14.7323
10921	-2.00077	-11.1588
10960	-2.00096	-9.21919
10999	-2.00092	-8.0195
11038	-2.00083	-7.19648
11077	-2.00085	-6.62157
11116	-2.00079	-6.16826
11155	-2.00086	-5.84499
11194	-2.00083	-5.59825
11233	-2.00094	-5.41301
11272	-2.00088	-5.26353
11311	-2.00088	-5.15228
11350	-2.00083	-5.06973
11389	-2.00075	-5.01983
11428	-2.0009	-4.97782
11467	-2.00088	-4.94754
11506	-2.00092	-4.93581
11545	-2.00086	-4.93301
11584	-2.00094	-4.95037
11623	-2.00086	-4.95479
11662	-2.0009	-4.97275
11701	-0.00104063	142.103
11740	-0.00102156	2.54835
11779	-0.00100249	1.51291
11818	-0.00102156	1.16717
11857	-0.00115508	0.998134
11896	-0.00100249	0.902516
11935	-0.00104063	0.821
11974	-0.000945264	0.757767
12013	-0.00113601	0.708039
12052	-0.00109786	0.667838
12091	-0.00100249	0.633479
12130	-0.00102156	0.598355
12169	-0.00092619	0.570729
12208	-0.00109786	0.545031
12247	-0.000983412	0.525752
12286	-0.00100249	0.498174
12325	-0.00104063	0.475633
12364	-0.00100249	0.45667
12403	-0.00092619	0.44247
12442	-0.00109786	0.424068
12481	-0.00109786	0.40762
12520	-0.00109786	0.39374
12559	-0.00105971	0.381073
12598	-0.00104063	0.368946
12637	-0.00107878	0.354468
12676	-0.00117415	0.343426
12715	-0.00105971	0.332898
12754	-0.00100249	0.324997
12793	-0.00113601	0.31309
12832	-0.00105971	0.304328
12871	-0.00102156	0.29579
12910	-0.00113601	0.289969
12949	-0.00092619	0.281071
12988	-0.0012123	0.273645
13027	-0.00100249	0.267295
13066	-0.00107878	0.261668
13105	-0.000888042	0.255897
13144	-0.000964338	0.248816
13183	-0.000849894	0.243647
13222	-0.00092619	0.238524
13261	-0.00102156	0.234988
13300	-0.00109786	0.228374
13339	-0.00092619	0.2238
13378	-0.00104063	0.219377
13417	-0.00105971	0.216574
13456	-0.00102156	0.211184
13495	-0.00104063	0.206749
13534	-0.000983412	0.202967
13573	-0.00113601	0.199891
13612	-0.00102156	0.196394
13651	-0.00109786	0.191911
13690	-0.000945264	0.188744
13729	-0.00107878	0.18534
13768	-0.000945264	0.18326
13807	-0.00109786	0.178719
13846	-0.00117415	0.175844
13885	-0.000964338	0.172908
13924	-0.00102156	0.17155
13963	-0.00111693	0.167626
14002	-0.00104063	0.164728
14041	-0.00115508	0.162009
14080	-0.00109786	0.160195
14119	-0.00100249	0.157521
14158	-0.00102156	0.154424
14197	-0.00092619	0.152112
14236	-0.00115508	0.14995
14275	-0.00109786	0.148475
14314	-0.000907116	0.145308
14353	-0.00107878	0.143276
14392	-0.00100249	0.141241
14431	1.49935	23.1147
14470	1.4994	13.216
14509	1.49935	9.50287
14548	1.49921	7.61225
14587	1.49927	6.40866
14626	1.49929	5.60336
14665	1.49942	5.01205
14704	1.49942	4.53219
14743	1.49927	4.16837
14782	1.49939	3.87803
14821	1.49918	3.62852
14860	1.49919	3.4268
14899	1.49919	3.25935
14938	1.49944	3.10408
14977	1.49933	2.97063
15016	1.49939	2.88099
15055	1.49921	2.77068
15094	1.49927	2.66247
15133	1.4995	2.54663
15172	1.49939	2.49447
15211	1.49925	2.45375
15250	1.49937	2.42093
15289	1.49937	2.35183
15328	1.4994	2.34595
15367	1.49937	2.40387
15406	1.49937	2.39155
15445	1.49921	2.39758
15484	1.49937	2.32418
15523	1.49929	2.35965
15562	1.49942	2.32598
15601	1.49937	2.32522
15640	1.49925	2.23306
15679	1.49931	2.23789
15718	1.49939	2.24708
15757	1.49931	2.2553
15796	1.49927	2.21172
15835	1.49923	2.16315
15874	1.49929	2.19696
15913	1.49942	2.18149
15952	1.49927	2.17277
15991	1.49937	2.10899
16030	1.49935	2.11061
16069	1.49937	2.11741
16108	1.49925	2.13712
16147	1.49918	2.07813
16186	1.49937	2.07306
16225	-0.00104063	-0.702296
16264	-0.00102156	-0.172988
16303	-0.00107878	-0.0723696
16342	-0.000983412	-0.0374965
16381	-0.00100249	-0.0179212
16420	-0.00115508	-0.00680546
16459	-0.00111693	0.0031237
16498	-0.00105971	0.00523617
16537	-0.000964338	0.00971755
16576	-0.000964338	0.0127192
16615	-0.00104063	0.0174042
16654	-0.00104063	0.0170808
16693	-0.000868968	0.0182271
16732	-0.000983412	0.0199371
16771	-0.00102156	0.0219632
16810	-0.00104063	0.022802
16849	-0.000945264	0.0220284
16888	-0.00102156	0.0231376
16927	-0.0012123	0.0235965
16966	-0.00102156	0.0256987
17005	-0.000964338	0.0240077
17044	-0.000945264	0.0248628
17083	-0.000983412	0.0251581
17122	-0.00104063	0.0272248
17161	-0.00109786	0.0251122
17200	-0.00105971	0.0251078
17239	-0.00111693	0.0257811
17278	-0.00104063	0.0264298
17317	-0.000868968	0.0262555
17356	-0.000964338	0.0250331
17395	-0.00107878	0.0257256
17434	-0.000868968	0.0256354
17473	-0.000983412	0.0271309
17512	-0.00100249	0.0250788
17551	-0.00092619	0.025362
17590	-0.00102156	0.0253967
17629	-0.00100249	0.0270535
17668	-0.00105971	0.025143
17707	-0.00107878	0.0251704
17746	-0.00105971	0.0255379
17785	-0.00100249	0.0261793
17824	-0.00102156	0.0256413
17863	-0.000888042	0.0248126
17902	-0.000983412	0.0249518
17941	-0.000907116	0.0248985
17980	-0.000945264	0.0259166
18019	-0.00104063	0.0242683
18058	-0.000964338	0.0243911
18097	-0.00104063	0.0243677
18136	-0.00104063	0.0257877
18175	-0.000888042	0.0241378
18214	-0.000945264	0.0240468
18253	-0.000907116	0.0240581
18292	-0.000945264	0.0249051
18331	-0.00104063	0.0244212
18370	-0.00100249	0.0236305
18409	-0.000983412	0.0238318
18448	-0.00102156	0.0240809
18487	-0.000983412	0.0247401
18526	-0.00092619	0.0231501
18565	-0.00100249	0.0234367
18604	-0.00100249	0.0231457
18643	-0.000907116	0.0244804
18682	-0.00107878	0.0226747
18721	-0.000888042	0.022615
18760	-0.00107878	0.0228326
18799	-0.00092619	0.0233784
18838	-0.00092619	0.0228059
18877	-0.00104063	0.0222707
18916	-0.00100249	0.0224224
18955	-0.00113601	0.0224952
18994	-0.00115508	0.0229953
19033	-0.00102156	0.021868
19072	-0.00100249	0.0220938
19111	-0.00104063	0.0219509
19150	-0.00105971	0.022788
19189	-0.00113601	0.0214652
19228	-0.00105971	0.0216122
19267	-0.00102156	0.0215845
19306	-0.00104063	0.0222609
19345	-0.00105971	0.0214274
19384	-0.00107878	0.020835
19423	-0.000983412	0.0210534
19462	-0.00092619	0.0210461
19501	-0.000792671	0.0215535
19540	-0.00107878	0.0204285
19579	-0.00104063	0.020758
19618	-0.00092619	0.0206688
19657	-0.00105971	0.0213738
19696	-0.000964338	0.0203664
19735	-0.00107878	0.0204832
19774	-0.00115508	0.0203599
19813	-0.00109786	0.020986
19852	-0.00104063	0.0203085
19891	-0.000983412	0.019948
19930	-0.00113601	0.0201463
19969	-0.00100249	0.0202843
20008	-0.00111693	0.0205149
20047	-0.000945264	0.0197243
20086	-0.000945264	0.0198773
20125	-0.00102156	0.0197193
20164	-0.00100249	0.0205387
20203	-0.00100249	0.0195748
20242	-0.000945264	0.0196663
20281	-0.000907116	0.0196648
20320	-0.000964338	0.0201473
20359	-0.00115508	0.019596
20398	-0.000945264	0.0192858
20437	-0.00104063	0.0192207
20476	-0.00104063	0.0193813
20515	-0.000964338	0.0195908
20554	-0.00109786	0.0188972
20593	-0.000983412	0.0188085
20632	-0.000868968	0.0188451
20671	-0.00111693	0.019517
20710	-0.00111693	0.0185959
20749	-0.000983412	0.0185565
20788	-0.000964338	0.0186187
20827	-0.00092619	0.0192276
20866	-0.00092619	0.0186136
20905	-0.00102156	0.0184664
20944	-0.00083082	0.0185307
20983	-0.000983412	0.0185099
21022	-0.00102156	0.0187159
21061	-0.00104063	0.0181164
21100	-0.00092619	0.0181872
21139	-0.00107878	0.0181912
21178	-0.00109786	0.0188111
21217	-0.00117415	0.0178593
21256	-0.00100249	0.0179372
21295	-0.00100249	0.0179199
21334	-0.00111693	0.0183756
21373	-0.000888042	0.0178339
21412	-0.000945264	0.0176275
21451	-0.00105971	0.0177757
21490	-0.000964338	0.017849
21529	-0.00107878	0.0177156
21568	-0.00104063	0.0172406
21607	-0.00104063	0.0174162
21646	-0.000945264	0.017376
21685	-0.000907116	0.0179171
21724	-0.00102156	0.0172407
21763	-0.00104063	0.0173086
21802	-0.00113601	0.0173379
21841	-0.000983412	0.017814
21880	-0.00104063	0.0171761
21919	-0.00107878	0.0170935
21958	-0.000983412	0.0172327
21997	-0.000888042	0.0173826
22036	-0.000868968	0.0173082
22075	-0.00105971	0.0169974
22114	-0.000945264	0.0169519
22153	-0.00092619	0.016928
22192	-0.000983412	0.0172723
22231	-0.00104063	0.0164991
22270	-0.000907116	0.0165958
22309	-0.00092619	0.0165038
22348	-0.00104063	0.0169869
22387	-0.00111693	0.0164434
22426	-0.00107878	0.0163874
22465	-0.00092619	0.0166361
22504	-0.00102156	0.0167552
22543	-0.000964338	0.016629
22582	-0.00104063	0.0163712
22621	-0.00102156	0.016504
22660	-0.000907116	0.0164422
22699	-0.0012123	0.0167806
22738	-0.00104063	0.0161244
22777	-0.00092619	0.0163442
22816	-0.000983412	0.0162503
22855	-0.000983412	0.0167187
22894	-0.00104063	0.0159451
22933	-0.000964338	0.0160189
22972	-0.000964338	0.016035
23011	-0.000983412	0.0161817
23050	-0.00083082	0.0159664
23089	-0.000983412	0.015644
23128	-0.000983412	0.0157836
23167	-0.00111693	0.0158167
23206	-0.00102156	0.0161053
23245	-0.000907116	0.0156607
23284	-0.000964338	0.015748
23323	-0.00102156	0.0157474
23362	-0.00109786	0.0161784
23401	-0.000983412	0.0156811
23440	-0.000964338	0.0155475
23479	-0.00092619	0.0156267
23518	-0.000964338	0.0157554
23557	-0.000964338	0.0155231
23596	-0.00104063	0.0153313
23635	-0.000907116	0.0154645
23674	-0.00102156	0.015347
23713	-0.00102156	0.0156888
23752	-0.00107878	0.0151719
23791	-0.000945264	0.0152886
23830	-0.000945264	0.0153161
23869	-0.00100249	0.0156608
23908	-0.000964338	0.0151711
23947	-0.00107878	0.0151018
23986	-0.00113601	0.0150739
24025	-0.00100249	0.0154452
24064	-0.00117415	0.0151533
24103	-0.00105971	0.0149995
24142	-0.00092619	0.015031
24181	-0.00113601	0.0150373
24220	-0.00117415	0.0152752
24259	-0.000964338	0.0147959
24298	-0.000983412	0.014881
24337	-0.00100249	0.0149135
24376	-0.000983412	0.0152914
24415	-0.00107878	0.0147243
24454	-0.00100249	0.0147597
24493	-0.00102156	0.0148494
24532	-0.00119323	0.0149776
24571	-0.00113601	0.0147983
24610	-0.00107878	0.0146375
24649	-0.000888042	0.0147193
24688	-0.000888042	0.0147671
24727	-0.00102156	0.0148252
24766	-0.00102156	0.0145017
24805	-0.000945264	0.0145629
24844	-0.000983412	0.0145793
24883	-0.00109786	0.0149577
24922	-0.00111693	0.0144948
24961	-0.00113601	0.0145106
25000	-0.00105971	0.0144799
25039	-0.00109786	0.0146808
25078	-0.000888042	0.0143689
25117	-0.00109786	0.0143133
25156	-0.00117415	0.0143444
25195	-0.00100249	0.0143872
25234	-2.00075	-18.8816
25273	-2.00083	-10.6909
25312	-2.0009	-8.0796
25351	-2.00098	-6.75729
25390	-2.00077	-5.95434
25429	-2.00083	-5.38899
25468	-2.00088	-4.97025
25507	-2.00062	-4.69522
25546	-2.00079	-4.4572
25585	-2.00075	-4.29461
25624	-2.00071	-4.15921
25663	-2.00077	-4.06855
25702	-2.00085	-4.00664
25741	-2.0009	-3.983
25780	-2.00083	-3.9572
25819	-2.00064	-3.95688
25858	-2.00071	-3.96895
25897	-2.00096	-4.00219
25936	-2.00088	-4.03134
25975	-2.00085	-4.06563
26014	-2.00077	-4.10564
26053	-2.00083	-4.1545
26092	-2.00083	-4.214
26131	-0.000964338	2.66472
26170	-0.000945264	1.28821
26209	-0.00092619	0.89879
26248	-0.000964338	0.724398
26287	-0.000964338	0.61259
26326	-0.00104063	0.544746
26365	-0.000983412	0.496126
26404	-0.00104063	0.462297
26443	-0.0012123	0.429163
26482	-0.00105971	0.403114
26521	-0.00109786	0.381964
26560	-0.000983412	0.365037
26599	-0.000964338	0.346473
26638	-0.00107878	0.328552
26677	-0.00102156	0.313881
26716	-0.00102156	0.300827
26755	-0.000964338	0.289415
26794	-0.00109786	0.274377
26833	-0.00100249	0.263455
26872	-0.00107878	0.253
26911	-0.00092619	0.245495
26950	-0.000907116	0.23468
26989	-0.000983412	0.226316
27028	-0.00102156	0.218775
27067	-0.00107878	0.212846
27106	-0.00092619	0.205455
27145	-0.00111693	0.198293
27184	-0.00092619	0.192863
27223	-0.000983412	0.187951
27262	-0.00109786	0.183796
27301	-0.00083082	0.177535
27340	-0.00107878	0.173292
27379	-0.00105971	0.169245
27418	-0.00100249	0.166738
27457	-0.00113601	0.16148
27496	-0.000888042	0.157886
27535	-0.00104063	0.154468
27574	-0.00107878	0.151982
27613	-0.00107878	0.148245
27652	-0.000964338	0.14479
27691	-0.00105971	0.141923
27730	-0.000983412	0.139559
27769	-0.00102156	0.137334
27808	-0.00109786	0.133819
27847	-0.00105971	0.1314
27886	-0.00105971	0.129161
27925	-0.000964338	0.127883
27964	-0.000907116	0.124614
28003	-0.00107878	0.122447
28042	-0.00105971	0.120352
28081	-0.00100249	0.119245
28120	-0.00107878	0.116642
28159	-0.00111693	0.114392
28198	-0.00107878	0.112755
28237	-0.00115508	0.111174
28276	-0.000964338	0.10955
28315	-0.00109786	0.107137
28354	-0.00109786	0.105677
28393	-0.00107878	0.104034
28432	-0.00109786	0.103316
28471	-0.00107878	0.100958
28510	-0.00115508	0.0995504
28549	-0.00100249	0.098188
28588	-0.00105971	0.0973118
28627	-0.000907116	0.0955491
28666	-0.00111693	0.0940813
28705	-0.00104063	0.092863
28744	-0.00105971	0.091883
28783	-0.00109786	0.0908324
28822	1.4994	20.9896
28861	1.49946	9.56548
28900	1.49939	6.63765
28939	1.49927	5.28698
28978	1.49921	4.46602
29017	1.49921	3.90507
29056	1.49927	3.49484
29095	1.49925	3.18853
29134	1.49935	2.96835
29173	1.49933	2.80248
29212	1.49931	2.63876
29251	1.49929	2.50823
29290	1.49931	2.37892
29329	1.49933	2.34272
29368	1.49929	2.35663
29407	1.49923	2.37136
29446	1.49929	2.36455
29485	1.49929	2.3505
29524	1.4994	2.41208
29563	1.49912	2.38618
29602	1.49929	2.40944
29641	1.49935	2.33493
29680	1.49925	2.32436
29719	1.49939	2.32665
29758	1.4994	2.34341
29797	1.49933	2.29536
29836	1.4994	2.28363
29875	1.49937	2.30625
29914	1.4994	2.29239
29953	1.49935	2.27586
29992	1.4994	2.20936
30031	1.49939	2.22159
30070	1.49927	2.2163
30109	1.49933	2.25055
30148	1.49914	2.16332
30187	1.49939	2.15696
30226	1.49939	2.15953
30265	1.49923	2.17963
30304	1.49937	2.14525
30343	1.49925	2.10442
30382	1.49925	2.09625
30421	1.49933	2.07998
30460	1.49923	2.08704
30499	1.49923	2.04053
30538	1.49933	2.04149
30577	1.49929	2.06282
30616	-0.000964338	-1.42922
30655	-0.000907116	-0.281899
30694	-0.00115508	-0.124251
30733	-0.000888042	-0.0682751
30772	-0.00107878	-0.0390805
30811	-0.000983412	-0.0242404
30850	-0.00107878	-0.0144997
30889	-0.00111693	-0.00680569
30928	-0.00113601	-0.00110727
30967	-0.00111693	0.00381185
31006	-0.000964338	0.00502018
31045	-0.00109786	0.00785376
31084	-0.00104063	0.00971368
31123	-0.00107878	0.0133435
31162	-0.00102156	0.012117
31201	-0.00100249	0.0135254
31240	-0.000945264	0.0148515
31279	-0.00102156	0.0167301
31318	-0.000945264	0.0160879
31357	-0.00102156	0.016051
31396	-0.000983412	0.0167208
31435	-0.000964338	0.017693
31474	-0.000792671	0.0183505
31513	-0.00100249	0.0173852
31552	-0.000945264	0.0180145
31591	-0.00100249	0.0183264
31630	-0.00109786	0.0198123
31669	-0.00105971	0.018175
31708	-0.00105971	0.0186291
31747	-0.000964338	0.0188083
31786	-0.000964338	0.0198975
31825	-0.00104063	0.0187667
31864	-0.000945264	0.0184842
31903	-0.00119323	0.018868
31942	-0.00105971	0.0192738
31981	-0.00100249	0.0194854
32020	-0.00100249	0.0185737
32059	-0.000983412	0.0188114
32098	-0.000983412	0.0188212
32137	-0.000945264	0.0198151
32176	-0.000945264	0.0182654
32215	-0.00105971	0.0185842
32254	-0.00092619	0.0188202
32293	-0.00117415	0.0198343
32332	-0.00104063	0.0185656
32371	-0.00104063	0.0184763
32410	-0.00109786	0.0185639
32449	-0.00111693	0.0188807
32488	-0.00100249	0.018925
32527	-0.00102156	0.01801
32566	-0.000964338	0.0185039
32605	-0.000945264	0.0184569
32644	-0.00105971	0.0191754
32683	-0.00102156	0.0178546
32722	-0.00105971	0.0179872
32761	-0.00100249	0.0180388
32800	-0.000983412	0.0189375
32839	-0.00105971	0.0178504
32878	-0.000945264	0.0178419
32917	-0.00102156	0.0179554
32956	-0.000945264	0.0181687
32995	-0.00107878	0.0180292
33034	-0.00104063	0.0173503
33073	-0.00102156	0.0175288
33112	-0.00104063	0.017497
33151	-0.00104063	0.0181512
33190	-0.000888042	0.0170712
33229	-0.000888042	0.0172687
33268	-0.000811746	0.017378
33307	-0.000964338	0.0181085
33346	-0.000983412	0.0171025
33385	-0.000964338	0.016921
33424	-0.00109786	0.0171384
33463	-0.00100249	0.0173612
33502	-0.00104063	0.0171942
33541	-0.000945264	0.0166365
33580	-0.00102156	0.0167937
33619	-0.00092619	0.0167564
33658	-0.00092619	0.0172574
33697	-0.00104063	0.0162844
33736	-0.00102156	0.0164929
33775	-0.000964338	0.0164402
33814	-0.00105971	0.0171476
33853	-0.000907116	0.0162066
33892	-0.00111693	0.0162867
33931	-0.000888042	0.0163295
33970	-0.000945264	0.0166513
34009	-0.000983412	0.0163541
34048	-0.00092619	0.0159703
34087	-0.00109786	0.0160924
34126	-0.000945264	0.0160334
34165	-0.000983412	0.0164291
34204	-0.00109786	0.0156599
34243	-0.00115508	0.0157597
34282	-0.00100249	0.0158229
34321	-0.00104063	0.0164196
34360	-0.000964338	0.0156184
34399	-0.000983412	0.0155434
34438	-0.00119323	0.0156239
34477	-0.00104063	0.0158436
34516	-0.00107878	0.0156305
34555	-0.000945264	0.0153142
34594	-0.00104063	0.0154302
34633	-0.00102156	0.0153343
34672	-0.000964338	0.0157076
34711	-0.00105971	0.0148315
34750	-0.000888042	0.0150333
34789	-0.00107878	0.0150236
34828	-0.00107878	0.0156599
34867	-0.000983412	0.0148329
34906	-0.000964338	0.0148585
34945	-0.00102156	0.0148883
34984	-0.00102156	0.0152816
35023	-0.00119323	0.0148495
35062	-0.00100249	0.0146352
35101	-0.000945264	0.0146848
35140	-0.00107878	0.0147503
35179	-0.00115508	0.0149318
35218	-0.000983412	0.0144301
35257	-0.000983412	0.0145439
35296	-0.000983412	0.0144034
35335	-0.000945264	0.014882
35374	-0.00105971	0.0142061
35413	-0.00107878	0.0142236
35452	-0.00104063	0.0143348
35491	-0.00105971	0.0146878
35530	-0.00100249	0.0143225
35569	-0.00104063	0.0140149
35608	-0.00100249	0.0141401
35647	-0.00092619	0.0141526
35686	-0.000983412	0.0143866
35725	-0.000945264	0.0139117
35764	-0.00105971	0.0139292
35803	-0.00092619	0.0139006
35842	-0.00105971	0.0143045
35881	-0.00100249	0.0137445
35920	-0.00105971	0.0136782
35959	-0.00100249	0.0137896
35998	-0.00107878	0.0140751
36037	-0.000964338	0.0136346
36076	-0.000945264	0.0135206
36115	-0.00105971	0.0136668
36154	-0.00104063	0.0136938
36193	-0.00100249	0.0137376
36232	-0.00109786	0.0133846
36271	-0.000907116	0.0135084
36310	-0.000945264	0.0134008
36349	-0.00102156	0.0138847
36388	-0.00102156	0.0133123
36427	-0.00105971	0.0133445
36466	-0.000811746	0.013308
36505	-0.000945264	0.0136732
36544	-0.00113601	0.0132649
36583	-0.000983412	0.0130625
36622	-0.00111693	0.013131
36661	-0.00105971	0.0132413
36700	-0.00111693	0.0132511
36739	-0.000964338	0.0129471
36778	-0.000773597	0.0130796
36817	-0.000983412	0.0129543
36856	-0.000888042	0.0133416
36895	-0.000983412	0.0127381
36934	-0.00107878	0.0128586
36973	-0.0012123	0.0128556
37012	-0.00107878	0.0131846
37051	-0.000868968	0.0127648
37090	-0.00111693	0.0127251
37129	-0.00102156	0.0127352
37168	-0.00104063	0.0128549
37207	-0.00107878	0.0127793
37246	-0.000888042	0.0125085
37285	-0.000945264	0.0127255
37324	-0.00104063	0.0125307
37363	-0.00102156	0.012912
37402	-0.00109786	0.0124787
37441	-0.00105971	0.0124623
37480	-0.000964338	0.0124778
37519	-0.00104063	0.0127962
37558	-0.00109786	0.012394
37597	-0.00104063	0.0123509
37636	-0.00100249	0.0124406
37675	-0.000945264	0.0124825
37714	-0.000945264	0.012374
37753	-0.000945264	0.0121348
37792	-0.000964338	0.0122434
37831	-0.00109786	0.0123123
37870	-0.00113601	0.012598
37909	-0.000964338	0.0120994
37948	-0.00102156	0.0122282
37987	-0.00100249	0.0121275
38026	-0.00104063	0.0123949
38065	-0.000868968	0.0120175
38104	-0.000792671	0.0119623
38143	-0.000983412	0.0119963
38182	-0.00102156	0.0121517
38221	-0.000907116	0.0121127
38260	-0.000983412	0.0117587
38299	-0.00117415	0.0119076
38338	-0.000945264	0.0118867
38377	-0.000983412	0.0120704
38416	-0.000983412	0.0116596
38455	-0.00105971	0.0117929
38494	-0.00107878	0.0116735
38533	-0.00102156	0.012065
38572	-0.00107878	0.0117126
38611	-0.00104063	0.0116222
38650	-0.000983412	0.0117151
38689	-0.00104063	0.0117249
38728	-0.00105971	0.0117601
38767	-0.00104063	0.0115447
38806	-0.00105971	0.0116942
38845	-0.000888042	0.0116085
38884	-0.00111693	0.0118159
38923	-0.000945264	0.0114027
38962	-0.000907116	0.0114783
39001	-0.00104063	0.0114779
39040	-0.00092619	0.0117258
39079	-0.00092619	0.0113578
39118	-0.00100249	0.0113487
39157	-0.00092619	0.0112906
39196	-0.00111693	0.0114907
39235	-0.000945264	0.0113616
39274	-0.00109786	0.0112137
39313	-0.00104063	0.0113468
39352	-0.000849894	0.0112804
39391	-0.00105971	0.0113889
39430	-0.00100249	0.011134
39469	-0.00100249	0.0111394
39508	-0.00104063	0.0111429
39547	-0.000888042	0.0114389
39586	-0.00102156	0.0110801
39625	-2.00088	-18.5241
39664	-2.00086	-9.07507
39703	-2.00079	-6.76632
39742	-2.00081	-5.68452
39781	-2.00088	-5.01214
39820	-2.00085	-4.59013
39859	-2.00079	-4.27409
39898	-2.0009	-4.05143
39937	-2.00075	-3.8651
39976	-2.00081	-3.72634
40015	-2.00088	-3.62121
40054	-2.00096	-3.5517
40093	-2.00088	-3.49603
40132	-2.00085	-3.45151
40171	-2.00085	-3.4293
40210	-2.00092	-3.42268
40249	-2.00079	-3.43428
40288	-2.00092	-3.43698
40327	-2.00081	-3.45409
40366	-2.00075	-3.47867
40405	-2.00081	-3.52041
40444	-2.00081	-3.55458
40483	-2.00085	-3.59105
40522	-0.000868968	3.61456
40561	-0.000964338	1.32446
40600	-0.000964338	0.820256
40639	-0.00104063	0.60542
40678	-0.00102156	0.493452
40717	-0.00117415	0.425073
40756	-0.00092619	0.379462
40795	-0.000983412	0.341717
40834	-0.000964338	0.313972
40873	-0.000983412	0.290741
40912	-0.000964338	0.27327
40951	-0.00115508	0.25349
40990	-0.00105971	0.238389
41029	-0.00083082	0.224968
41068	-0.00102156	0.214549
41107	-0.00104063	0.202583
41146	-0.00100249	0.192576
41185	-0.00109786	0.184229
41224	-0.00117415	0.177272
41263	-0.000945264	0.170258
41302	-0.00105971	0.162931
41341	-0.000907116	0.157253
41380	-0.00104063	0.151757
41419	-0.00100249	0.147806
41458	-0.00102156	0.141691
41497	-0.000964338	0.137596
41536	-0.00105971	0.133648
41575	-0.00113601	0.130984
41614	-0.000868968	0.126559
41653	-0.000983412	0.123103
41692	-0.000907116	0.119962
41731	-0.000964338	0.117512
41770	-0.00107878	0.114543
41809	-0.00092619	0.111383
41848	-0.00100249	0.108909
41887	-0.00109786	0.106583
41926	-0.00111693	0.104741
41965	-0.00113601	0.101809
42004	-0.00111693	0.0997233
42043	-0.000945264	0.0977181
42082	-0.00105971	0.0966149
42121	-0.00104063	0.0939365
42160	-0.000964338	0.0920476
42199	-0.00105971	0.0903811
42238	-0.000849894	0.0891806
42277	-0.000983412	0.0873668
42316	-0.00111693	0.0854518
42355	-0.000888042	0.0841533
42394	-0.000983412	0.0827598
42433	-0.000888042	0.0817161
42472	-0.000983412	0.0797734
42511	-0.00107878	0.078578
42550	-0.000983412	0.0773361
42589	-0.000983412	0.0766815
42628	-0.00092619	0.0749485
42667	-0.000983412	0.0737049
42706	-0.000983412	0.072824
42745	-0.00107878	0.0721411
42784	-0.00092619	0.0707203
42823	-0.00115508	0.0695221
42862	-0.000907116	0.0684685
42901	-0.00102156	0.0675656
42940	-0.000983412	0.067012
42979	-0.000964338	0.0655368
43018	-0.00105971	0.0645578
43057	-0.00105971	0.0637923
43096	-0.00104063	0.0635101
43135	-0.000983412	0.0620243
43174	-0.00104063	0.061361
43213	1.49931	23.5925
43252	1.49925	8.20001
43291	1.4994	5.45021
43330	1.49935	4.23473
43369	1.4994	3.53762
43408	1.4994	3.10151
43447	1.49931	2.82249
43486	1.49933	2.61181
43525	1.49927	2.46837
43564	1.49937	2.40366
43603	1.49925	2.38154
43642	1.49935	2.37343
43681	1.49948	2.41514
43720	1.4994	2.45185
43759	1.49927	2.45163
43798	1.49933	2.37912
43837	1.49946	2.37045
43876	1.49929	2.41192
43915	1.49931	2.39852
43954	1.4994	2.36466
43993	1.49918	2.33385
44032	1.49937	2.33355
44071	1.49942	2.3208
44110	1.49933	2.32488
44149	1.49923	2.27068
44188	1.49923	2.26877
44227	1.49942	2.26709
44266	1.49937	2.25032
44305	1.49914	2.21197
44344	1.49933	2.20851
44383	1.49923	2.17931
44422	1.49921	2.16883
44461	1.49939	2.16456
44500	1.49921	2.12033
44539	1.49937	2.13265
44578	1.49946	2.10834
44617	1.49939	2.1055
44656	1.49925	2.05578
44695	1.49935	2.05161
44734	1.49925	2.04312
44773	1.49921	2.03699
44812	1.49931	2.00738
44851	1.49944	1.98247
44890	1.4994	1.98453
44929	1.49923	1.97282
44968	1.49935	1.9631
45007	-0.00104063	-4.2354
45046	-0.00102156	-0.409645
45085	-0.00102156	-0.174256
45124	-0.00107878	-0.0979268
45163	-0.000945264	-0.0632372
45202	-0.000983412	-0.0423182
45241	-0.00109786	-0.0291734
45280	-0.000983412	-0.0186871
45319	-0.00102156	-0.0137894
45358	-0.000983412	-0.00897377
45397	-0.00109786	-0.00493008
45436	-0.00105971	-0.00111522
45475	-0.000888042	0.000767954
45514	-0.000907116	0.00194717
45553	-0.00104063	0.00385559
45592	-0.000945264	0.00530712
45631	-0.00107878	0.00727913
45670	-0.00100249	0.00669702
45709	-0.00113601	0.00792255
45748	-0.000907116	0.00866748
45787	-0.00111693	0.0104635
45826	-0.00102156	0.00946179
45865	-0.00105971	0.00992346
45904	-0.000907116	0.0105952
45943	-0.000983412	0.011639
45982	-0.00107878	0.0113492
46021	-0.00102156	0.0111534
46060	-0.00104063	0.0116432
46099	-0.00092619	0.0120088
46138	-0.00104063	0.0127427
46177	-0.00100249	0.0117472
46216	-0.00102156	0.0123388
46255	-0.00104063	0.0123683
46294	-0.000964338	0.0135234
46333	-0.000983412	0.0122499
46372	-0.00117415	0.0124611
46411	-0.00113601	0.0127344
46450	-0.000983412	0.0133355
46489	-0.00100249	0.0128279
46528	-0.00104063	0.0125808
46567	-0.000983412	0.0128266
46606	-0.00113601	0.012959
46645	-0.000983412	0.0133521
46684	-0.000964338	0.0127412
46723	-0.00111693	0.0128468
46762	-0.00092619	0.0129146
46801	-0.00109786	0.0136616
46840	-0.00102156	0.012656
46879	-0.000964338	0.01286
46918	-0.00107878	0.0129267
46957	-0.00105971	0.0135195
46996	-0.000964338	0.0128726
47035	-0.00100249	0.0126817
47074	-0.000811746	0.0128628
47113	-0.000983412	0.0130065
47152	-0.00107878	0.0133786
47191	-0.00104063	0.012519
47230	-0.00092619	0.0127973
47269	-0.000907116	0.0128206
47308	-0.00092619	0.0134354
47347	-0.000983412	0.0125161
47386	-0.00113601	0.0126615
47425	-0.000964338	0.012678
47464	-0.00092619	0.0132075
47503	-0.00104063	0.0125562
47542	-0.000888042	0.0124798
47581	-0.000907116	0.0126529
47620	-0.00102156	0.012825
47659	-0.00107878	0.0128146
47698	-0.00113601	0.0122389
47737	-0.000964338	0.0124326
47776	-0.000907116	0.0124386
47815	-0.000964338	0.012901
47854	-0.00102156	0.0121202
47893	-0.000983412	0.0124198
47932	-0.000888042	0.012338
47971	-0.00100249	0.0128129
48010	-0.000964338	0.0121813
48049	-0.000964338	0.0121968
48088	-0.000907116	0.0121691
48127	-0.00083082	0.0122844
48166	-0.000983412	0.0123056
48205	-0.00092619	0.011963
48244	-0.00111693	0.0121064
48283	-0.00083082	0.0119572
48322	-0.000983412	0.0125033
48361	-0.00104063	0.0118148
48400	-0.00109786	0.0120618
48439	-0.00107878	0.0119227
48478	-0.00104063	0.0123369
48517	-0.00104063	0.0118341
48556	-0.00102156	0.0117475
48595	-0.000888042	0.0117447
48634	-0.000964338	0.0120206
48673	-0.00092619	0.0119128
48712	-0.00104063	0.0114698
48751	-0.000945264	0.0117018
48790	-0.00105971	0.0116432
48829	-0.00104063	0.0119656
48868	-0.00100249	0.0113291
48907	-0.000907116	0.0115668
48946	-0.00107878	0.0114926
48985	-0.00102156	0.0120048
49024	-0.00105971	0.011441
49063	-0.000983412	0.011361
49102	-0.000907116	0.0114259
49141	-0.00109786	0.0116099
49180	-0.00092619	0.0114255
49219	-0.000964338	0.0111841
49258	-0.00105971	0.011264
49297	-0.00104063	0.0111808
49336	-0.000964338	0.0115982
49375	-0.000983412	0.0110707
49414	-0.00104063	0.0111353
49453	-0.00113601	0.011121
49492	-0.00105971	0.0115543
49531	-0.000868968	0.0109328
49570	-0.00102156	0.0110268
49609	-0.000983412	0.0109896
49648	-0.00100249	0.0111767
49687	-0.00100249	0.0110344
49726	-0.00105971	0.0108678
49765	-0.000983412	0.010943
49804	-0.000945264	0.0109279
49843	-0.000964338	0.0111959
49882	-0.00113601	0.0107464
49921	-0.00104063	0.0108502
49960	-0.000964338	0.0107819
49999	-0.00111693	0.011133
50038	-0.00113601	0.0107031
50077	-0.000983412	0.0106242
50116	-0.00102156	0.0107822
50155	-0.00104063	0.0109741
50194	-0.000964338	0.0106715
50233	-0.00105971	0.0104993
50272	-0.00104063	0.0105095
50311	-0.000983412	0.0105732
50350	-0.00092619	0.0107723
50389	-0.00107878	0.0103271
50428	-0.00105971	0.0104959
50467	-0.00115508	0.0104295
50506	-0.00102156	0.010664
50545	-0.00111693	0.0102277
50584	-0.00107878	0.0102982
50623	-0.00102156	0.0104368
50662	-0.00102156	0.0106014
50701	-0.000964338	0.0102681
50740	-0.00102156	0.010195
50779	-0.00109786	0.0103225
50818	-0.00107878	0.0103272
50857	-0.00102156	0.0104743
50896	-0.00102156	0.0101349
50935	-0.000945264	0.00992048
50974	-0.00105971	0.0101616
51013	-0.00100249	0.0104501
51052	-0.000945264	0.00994157
51091	-0.00109786	0.00999588
51130	-0.00109786	0.00994907
51169	-0.00107878	0.0101459
51208	-0.000945264	0.0100476
51247	-0.00111693	0.00997393
51286	-0.00107878	0.00994347
51325	-0.00104063	0.00986826
51364	-0.000983412	0.0101653
51403	-0.000964338	0.00964989
51442	-0.000945264	0.0098501
51481	-0.00107878	0.0098095
51520	-0.00109786	0.0102292
51559	-0.000964338	0.0097884
51598	-0.000983412	0.0098585
51637	-0.00105971	0.00973951
51676	-0.00115508	0.0100298
51715	-0.00092619	0.00975759
51754	-0.00102156	0.00964022
51793	-0.000983412	0.00974159
51832	-0.000907116	0.00971547
51871	-0.00105971	0.00968411
51910	-0.00092619	0.00948087
51949	-0.000868968	0.00956181
51988	-0.000983412	0.00957795
52027	-0.00109786	0.00984275
52066	-0.00092619	0.00939754
52105	-0.00102156	0.00947694
52144	-0.000945264	0.00962704
52183	-0.00107878	0.00971514
52222	-0.00105971	0.00937752
52261	-0.00115508	0.00936841
52300	-0.000945264	0.00946574
52339	-0.00102156	0.00944619
52378	-0.000868968	0.00959301
52417	-0.00115508	0.00930604
52456	-0.00100249	0.00936745
52495	-0.000964338	0.00942242
52534	-0.00102156	0.00952512
52573	-0.0012123	0.00922201
52612	-0.00113601	0.00926961
52651	-0.00109786	0.00925813
52690	-0.000907116	0.00951578
52729	-0.00111693	0.00919796
52768	-0.000907116	0.00915938
52807	-0.00107878	0.00915858
52846	-0.00109786	0.00921248
52885	-0.00104063	0.00924738
52924	-0.00115508	0.00902796
52963	-0.00105971	0.00912111
53002	-0.000907116	0.00905401
53041	-0.000888042	0.00935367
53080	-0.000983412	0.0089973
53119	-0.00117415	0.0090303
53158	-0.00104063	0.00903429
53197	-0.000907116	0.00924221
53236	-0.00111693	0.00893769
53275	-0.00107878	0.00887468
53314	-0.00105971	0.00894611
53353	-0.000945264	0.00910267
53392	-0.000983412	0.00891576
53431	-0.00104063	0.00887227
53470	-0.000983412	0.0089381
53509	-0.00104063	0.00890808
53548	-0.00109786	0.00918311
53587	-0.00105971	0.00883239
53626	-0.000983412	0.00886989
53665	-0.000868968	0.00882191
53704	-0.000983412	0.00908968
53743	-0.00102156	0.00864149
53782	-0.000888042	0.00869722
53821	-0.00109786	0.00872538
53860	-0.00107878	0.00880851
53899	-0.00107878	0.0086377
53938	-0.000888042	0.00868425
53977	-0.00092619	0.00873346
54016	-2.00092	-24.3957
54055	-2.001	-8.88792
54094	-2.00092	-6.37394
54133	-2.00083	-5.28931
54172	-2.00081	-4.69377
54211	-2.0009	-4.30748
54250	-2.00081	-4.03883
54289	-2.00077	-3.82685
54328	-2.00085	-3.67816
54367	-2.00098	-3.56067
54406	-2.00085	-3.4793
54445	-2.00069	-3.40329
54484	-2.00073	-3.35084
54523	-2.00096	-3.31031
54562	-2.00083	-3.28768
54601	-2.00075	-3.26397
54640	-2.00085	-3.24889
54679	-2.00083	-3.24419
54718	-2.00086	-3.24671
54757	-2.00079	-3.25758
54796	-2.00083	-3.26292
54835	-2.00083	-3.27673
54874	-2.00077	-3.29582
54913	-0.00117415	6.55676
54952	-0.00107878	1.4653
54991	-0.00104063	0.82358
55030	-0.00113601	0.573415
55069	-0.00100249	0.446558
55108	-0.00104063	0.364373
55147	-0.000983412	0.311103
55186	-0.000945264	0.273468
55225	-0.000888042	0.24657
55264	-0.000964338	0.223425
55303	-0.00104063	0.204626
55342	-0.00109786	0.190193
55381	-0.000888042	0.17821
55420	-0.000983412	0.168185
55459	-0.00102156	0.157759
55498	-0.00102156	0.150053
55537	-0.00100249	0.142872
55576	-0.00111693	0.13779
55615	-0.00092619	0.130813
55654	-0.000945264	0.125735
55693	-0.00107878	0.12094
55732	-0.00104063	0.117512
55771	-0.00100249	0.113019
55810	-0.00119323	0.10887
55849	-0.000888042	0.105662
55888	-0.00107878	0.102786
55927	-0.00113601	0.0999827
55966	-0.00105971	0.0965892
56005	-0.000945264	0.0940625
56044	-0.00109786	0.0917185
56083	-0.00107878	0.0900663
56122	-0.00109786	0.0871733
56161	-0.00105971	0.0851361
56200	-0.00092619	0.0832604
56239	-0.00102156	0.0819101
56278	-0.00107878	0.0796551
56317	-0.00107878	0.0777077
56356	-0.00111693	0.0761884
56395	-0.000983412	0.0747526
56434	-0.00100249	0.073264
56473	-0.00111693	0.0715131
56512	-0.000945264	0.0703603
56551	-0.00107878	0.0690561
56590	-0.000907116	0.0681116
56629	-0.00104063	0.0663277
56668	-0.00107878	0.0652981
56707	-0.00092619	0.0642039
56746	-0.00104063	0.0635927
56785	-0.000983412	0.061963
56824	-0.00109786	0.0610558
56863	-0.000983412	0.060016
56902	-0.00109786	0.0593561
56941	-0.00102156	0.0584491
56980	-0.00102156	0.0570766
57019	-0.00104063	0.0564712
57058	-0.000964338	0.0556318
57097	-0.000945264	0.0552763
57136	-0.00107878	0.0539644
57175	-0.00102156	0.0532701
57214	-0.000964338	0.0524622
57253	-0.00115508	0.0521391
57292	-0.00102156	0.0510648
57331	-0.000945264	0.0503718
57370	-0.00104063	0.0497107
57409	-0.00102156	0.0490704
57448	-0.00105971	0.0484093
57487	-0.000888042	0.0476023
57526	-0.00104063	0.0470138
57565	-0.00109786	0.0464794
57600	-0.00100249	0.0460101