File: Data_20_Experiment/CA_001_C01.txt
time/s	Ewe/V	<I>/mA
1	1.49929	413.721
40	1.49927	40.8069
79	1.49929	36.2654
118	1.49941	32.597
157	1.49941	29.2444
196	1.49921	26.351
235	1.49931	23.9095
274	1.49925	21.6848
313	1.49925	19.8043
352	1.49935	18.1335
391	1.49935	16.8227
430	1.49958	15.6442
469	1.49927	14.6507
508	1.49931	13.7324
547	1.49929	13.0188
586	1.49929	12.3339
625	1.49923	11.7232
664	1.49927	11.1519
703	1.49929	10.6682
742	1.49942	10.2165
781	1.49939	9.78624
820	1.49921	9.37243
859	1.49933	8.96913
898	1.4992	8.65789
937	1.49937	8.30744
976	1.49931	8.00848
1015	1.49942	7.70158
1054	1.49933	7.45706
1093	1.49931	7.1821
1132	1.49935	6.93364
1171	1.49929	6.67742
1210	1.49939	6.4413
1249	1.49937	6.23075
1288	1.49935	6.01448
1327	1.49937	5.81607
1366	1.49931	5.59275
1405	1.49931	5.44128
1444	1.49921	5.25639
1483	1.49941	5.08894
1522	1.49927	4.92404
1561	1.49931	4.76492
1600	1.49929	4.6123
1639	1.49929	4.49033
1678	1.49923	4.34713
1717	1.49929	4.23448
1756	1.49921	4.13189
1795	1.49923	4.00809
1833.95	-0.000582236	-0.601588
1872.98	-0.00107816	0.200297
1911.98	-0.000963718	0.337551
1950.98	-0.000868348	0.368233
1989.98	-0.000887422	0.340158
2028.98	-0.000677607	0.308281
2067.98	-0.000887422	0.267842
2106.98	-0.000715755	0.210731
2145.98	-0.000715755	0.184103
2184.98	-0.000734829	0.173265
2223.98	-0.000849274	0.179606
2262.98	-0.000620385	0.154773
2301.98	-0.000944644	0.134253
2340.98	-0.0008302	0.123572
2379.98	-0.000753903	0.130436
2418.98	-0.000772977	0.119386
2457.98	-0.0008302	0.100259
2496.98	-0.000792052	0.0920553
2535.98	-0.00092557	0.0988091
2574.98	-0.000811126	0.0970644
2613.98	-0.0008302	0.0814651
2652.98	-0.000887422	0.0752844
2691.98	-0.000906496	0.0725453
2730.98	-0.000753903	0.0834377
2769.98	-0.000811126	0.0742564
2808.98	-0.000792052	0.0656361
2847.98	-0.000906496	0.0610932
2886.98	-0.000811126	0.0742566
2925.98	-0.000753903	0.0670404
2964.98	-0.000849274	0.0592856
3003.98	-0.000792052	0.0545006
3042.98	-0.000849274	0.0596459
3081.98	-0.000715755	0.0619196
3120.98	-0.0008302	0.0529945
3159.98	-0.000944644	0.0499085
3198.98	-0.000734829	0.0500235
3237.98	-0.000906496	0.0589731
3276.98	-0.00092557	0.049799
3315.98	-0.00100187	0.0440145
3354.98	-0.000772977	0.0430256
3393.98	-0.000792052	0.0518237
3432.98	-0.00104001	0.0478028
3471.98	-0.000887422	0.0389075
3510.98	-0.000963718	0.0358749
3549.98	-0.000868348	0.0423392
3588.98	-0.000677607	0.0478355
3627.98	-0.000811126	0.0394624
3666.98	-0.000963718	0.034894
3705.98	-0.000887422	0.0371833
3744.98	-0.0008302	0.0478687
3783.98	-0.000963718	0.0412142
3822.98	-0.0008302	0.0415718
3861.98	-0.000753903	0.0367919
3900.98	-0.000792052	0.0434249
3939.98	-0.00092557	0.0389119
3978.98	-0.000753903	0.0337856
4017.98	-0.000811126	0.0316394
4056.98	-0.000849274	0.0381114
4095.98	-0.000753903	0.0401034
4134.98	-0.000753903	0.035337
4173.98	-0.00100187	0.0311189
4212.98	-0.0008302	0.0324486
4251.98	-0.000944644	0.0409171
4290.98	-0.000753903	0.035801
4329.98	-0.0008302	0.0322634
4368.98	-0.000849274	0.037757
4407.98	-0.000658533	0.0420303
4446.98	-0.000734829	0.0361664
4485.98	-0.00100187	0.0327668
4524.98	-0.00092557	0.0301675
4563.98	-0.000887422	0.0343152
4602.98	-0.000849274	0.0397513
4641.98	-0.000696681	0.0305245
4680.98	-0.000753903	0.0312442
4719.98	-0.000868348	0.0304017
4758.98	-0.000753903	0.0405626
4797.98	-0.000868348	0.0313251
4836.98	-0.000868348	0.0303405
4875.98	-0.000944644	0.0280837
4914.98	-0.000811126	0.0347176
4953.98	-0.000772977	0.0351061
4992.98	-0.000887422	0.030011
5031.98	-0.00092557	0.0296494
5070.98	-0.000868348	0.0345996
5109.98	-0.000715755	0.0375765
5148.98	-0.000868348	0.0298352
5187.98	-0.000772977	0.0280834
5226.98	-0.000811126	0.0296305
5265.98	-0.000792052	0.0330884
5304.98	-0.000868348	0.0301043
5343.98	-0.000715755	0.0279326
5382.98	-0.000734829	0.0272357
5421.98	-0.000620385	0.0300584
5460.98	-0.000772977	0.0305406
5499.98	-0.000944644	0.0311933
5538.98	-0.000944644	0.0270174
5577.98	-0.00092557	0.032659
5616.98	-0.000963718	0.0306432
5655.98	-0.000963718	0.0267505
5694.98	-0.000811126	0.0264907
5733.98	-0.000734829	0.028659
5772.98	-0.000887422	0.0315337
5811.98	-0.000944644	0.0272835
5850.98	-0.000963718	0.0274051
5889.98	-0.0008302	0.0258354
5928.98	-0.00100187	0.0322512
5967.98	-0.000868348	0.0295073
6006.98	-0.000906496	0.0267581
6045.98	-0.000887422	0.0250077
6084.98	-0.0008302	0.0303025
6123.98	-0.000696681	0.0310988
6162.98	-0.000963718	0.0265227
6201.98	-0.000753903	0.0280101
6240.98	-0.000868348	0.0266856
6279.98	-0.000753903	0.0331798
6318.98	-0.000658533	0.0238181
6357.98	-0.000811126	0.0280564
6396.98	-0.000906496	0.0269627
6435.98	-0.00092557	0.0342938
6474.98	-0.000658533	0.0257494
6513.98	-0.000887422	0.0241867
6552.98	-0.000792052	0.0241661
6591.98	-0.000677607	0.0315643
6630.98	-0.000734829	0.0291884
6669.98	-0.000868348	0.0257048
6708.98	-0.000696681	0.0228045
6747.98	-0.000963718	0.0256423
6786.98	-0.000792052	0.0261684
6825.98	-0.000944644	0.0283001
6864.98	-0.000887422	0.0225522
6903.98	-0.000715755	0.0270928
6942.98	-0.000906496	0.0289593
6981.98	-0.000868348	0.024688
7020.98	-0.0008302	0.0220112
7059.98	-0.00092557	0.0200556
7098.98	-0.000734829	0.0269694
7137.98	-0.000868348	0.0242985
7176.98	-0.000868348	0.0235246
7215.98	-0.000792052	0.02158
7254.98	-0.000963718	0.0238973
7293.98	-0.000887422	0.0280301
7332.98	-0.000772977	0.0258695
7371.98	-0.000887422	0.0235386
7410.98	-0.000887422	0.025247
7449.98	-0.000734829	0.0291072
7488.98	-0.000772977	0.0264454
7527.98	-0.000734829	0.0251779
7566.98	-0.000734829	0.0235081
7605.98	-0.000811126	0.0281848
7644.98	-0.00092557	0.0279396
7683.98	-0.000753903	0.0234506
7722.98	-0.000639459	0.0221668
7761.98	-0.000792052	0.0241537
7800.98	-0.000887422	0.0288031
7839.98	-0.000811126	0.0241452
7878.98	-0.000868348	0.0234934
7917.98	-0.000811126	0.0250678
7956.98	-0.000849274	0.0294265
7995.98	-0.000582236	0.0260679
8034.98	-0.000811126	0.0259124
8073.98	-0.000734829	0.0248052
8112.98	-0.000963718	0.0277692
8151.98	-0.000715755	0.0279474
8190.98	-0.000887422	0.0253043
8229.98	-0.000887422	0.0238159
8268.98	-0.00100187	0.0264428
8307.98	-0.000811126	0.0269698
8346.98	-0.0008302	0.0258749
8385.98	-0.000658533	0.0237004
8424.98	-0.000715755	0.02426
8463.98	-0.000792052	0.0272129
8502.98	-0.000887422	0.0257639
8541.98	-0.000792052	0.0248299
8580.98	-0.000715755	0.0248683
8619.98	-0.00092557	0.0275776
8658.98	-0.000868348	0.0266386
8697.98	-0.000887422	0.0277984
8736.98	-0.000811126	0.0237809
8775.98	-0.00102094	0.0288744
8814.98	-0.00105909	0.0269428
8853.98	-0.000715755	0.0240025
8892.98	-0.000792052	0.0257787
8931.98	-0.000887422	0.0243264
8970.98	-0.000963718	0.026424
9009.98	-0.000753903	0.0246414
9048.98	-0.00105909	0.0245793
9087.98	-0.000772977	0.0268138
9126.98	-0.000982793	0.0270795
9165.98	-0.000906496	0.0270809
9204.98	-0.000849274	0.0242567
9243.98	-0.000868348	0.0247925
9282.98	-0.000715755	0.0266414
9321.98	-0.000944644	0.0255963
9360.98	-0.000868348	0.0239138
9399.98	-0.000963718	0.0229996
9438.98	-0.000944644	0.023696
9477.98	-0.000772977	0.0268938
9516.98	-0.000792052	0.0254634
9555.98	-0.000696681	0.0247983
9594.98	-0.000849274	0.0257826
9633.98	-0.0008302	0.0258717
9672.98	-0.000849274	0.0253262
9711.98	-0.00100187	0.0246354
9750.98	-0.0008302	0.0235291
9789.98	-0.000887422	0.0252739
9828.98	-0.000753903	0.0266456
9867.98	-0.000944644	0.0267365
9906.98	-0.00111631	0.0244432
9945.98	-0.000811126	0.0223458
9984.98	-0.0008302	0.0265694
10024	-0.000811126	0.0249314
10063	-0.000906496	0.0247966
10102	-0.000811126	0.0228675
10141	-0.000792052	0.0278283
10180	-0.000963718	0.0232111
10219	-0.000677607	0.023161
10258	-0.000772977	0.02431
10297	-0.00092557	0.0255329
10336	-0.000944644	0.0248268
10375	-0.000906496	0.0246308
10414	-0.000753903	0.0252671
10453	-0.000944644	0.023666
10492	-0.000906496	0.0249982
10531	-0.00102094	0.0256173
10570	-0.00102094	0.0248989
10609	-0.000811126	0.0248671
10648	-0.000696681	0.0265532
10687	-0.0008302	0.0251146
10726	-0.000849274	0.023427
10765	-0.000639459	0.0226324
10804	-3.00129	-558.249
10843	-3.00129	-291.835
10882	-3.00138	-313.571
10921	-3.0013	-329.584
10960	-3.00134	-340.421
10999	-3.00132	-347.833
11038	-3.00123	-353.148
11077	-3.00132	-357.166
11116	-3.00144	-359.801
11155	-3.00144	-361.27
11194	-3.00125	-362.193
11233	-3.0013	-362.545
11272	-3.00127	-362.535
11311	-3.00146	-362.186
11350	-3.00142	-361.968
11389	-3.0013	-360.383
11428	-3.00127	-359.458
11467	-3.00117	-358.302
11506	-3.00127	-357.263
11545	-3.0013	-356.052
11584	-3.00148	-354.697
11623	-3.00138	-353.766
11662	-3.0014	-352.518
11701	-0.000891228	143.675
11740	-0.000757709	7.7997
11779	-0.000853079	3.48225
11818	-0.000757709	2.23167
11857	-0.000929376	1.67051
11896	-0.00094845	1.37876
11935	-0.000643265	1.20663
11974	-0.000757709	1.08636
12013	-0.000776783	0.995819
12052	-0.000929376	0.935158
12091	-0.000719561	0.888817
12130	-0.000910302	0.844649
12169	-0.000814931	0.806973
12208	-0.00106289	0.762253
12247	-0.000776783	0.730918
12286	-0.000700487	0.716363
12325	-0.000834005	0.690348
12364	-0.000814931	0.66837
12403	-0.000719561	0.646835
12442	-0.00102475	0.630324
12481	-0.000853079	0.620013
12520	-0.000929376	0.613135
12559	-0.000757709	0.593592
12598	-0.000853079	0.573491
12637	-0.000834005	0.565246
12676	-0.000891228	0.560601
12715	-0.000853079	0.552889
12754	-0.000738635	0.539024
12793	-0.000891228	0.53527
12832	-0.000547894	0.530766
12871	-0.000757709	0.518843
12910	-0.000795857	0.508962
12949	-0.000853079	0.502914
12988	-0.000872154	0.492847
13027	-0.000853079	0.479805
13066	-0.000795857	0.470281
13105	-0.000719561	0.463337
13144	-0.00094845	0.463322
13183	-0.000757709	0.458997
13222	-0.000795857	0.447016
13261	-0.000814931	0.439926
13300	-0.000929376	0.43251
13339	-0.000872154	0.426367
13378	-0.000853079	0.419767
13417	-0.000986598	0.413498
13456	-0.000891228	0.410304
13495	-0.000681412	0.408449
13534	-0.000586042	0.401338
13573	-0.000757709	0.396235
13612	-0.000757709	0.392802
13651	-0.000872154	0.393346
13690	-0.00102475	0.393894
13729	-0.000814931	0.389497
13768	-0.000795857	0.383361
13807	-0.000834005	0.377136
13846	-0.000757709	0.37137
13885	-0.000757709	0.362825
13924	-0.000757709	0.356654
13963	-0.000929376	0.352958
14002	-0.000719561	0.348081
14041	-0.000814931	0.342864
14080	-0.000795857	0.340858
14119	-0.000719561	0.338782
14158	-0.00094845	0.336459
14197	-0.000891228	0.332933
14236	-0.000834005	0.326786
14275	-0.000814931	0.324101
14314	-0.000872154	0.320256
14353	-0.000757709	0.317011
14392	-0.000795857	0.31329
14431	1.49931	29.6825
14470	1.49929	22.7582
14509	1.49933	18.1512
14548	1.49937	14.5026
14587	1.49946	12.1258
14626	1.49925	10.5188
14665	1.49939	9.46225
14704	1.49939	8.67935
14743	1.49931	8.17098
14782	1.49935	7.72243
14821	1.49935	7.36475
14860	1.49929	7.02763
14899	1.49939	6.84343
14938	1.49921	6.60631
14977	1.49923	6.39959
15016	1.49925	6.18868
15055	1.49942	6.05184
15094	1.49941	5.95374
15133	1.49927	5.78727
15172	1.4992	5.64923
15211	1.49931	5.50229
15250	1.49948	5.44287
15289	1.4992	5.32756
15328	1.49939	5.18975
15367	1.49942	5.03672
15406	1.49927	4.9607
15445	1.49939	4.84566
15484	1.49948	4.73913
15523	1.49944	4.61335
15562	1.49912	4.53263
15601	1.49939	4.47313
15640	1.49937	4.38218
15679	1.49929	4.28625
15718	1.49937	4.17356
15757	1.499	4.12843
15796	1.49927	4.05644
15835	1.49931	3.98214
15874	1.49916	3.85198
15913	1.49929	3.80854
15952	1.49937	3.75234
15991	1.49923	3.68084
16030	1.49914	3.57647
16069	1.49925	3.53498
16108	1.49921	3.50232
16147	1.49923	3.44256
16186	1.49937	3.36585
16225	-0.00104001	-1.03827
16264	-0.000811126	-0.0456181
16303	-0.000982793	0.0610771
16342	-0.000944644	0.0831932
16381	-0.000868348	0.0903781
16420	-0.000772977	0.0900603
16459	-0.000792052	0.0916514
16498	-0.000944644	0.0934929
16537	-0.00102094	0.095379
16576	-0.000811126	0.0901515
16615	-0.000792052	0.090101
16654	-0.000811126	0.0871539
16693	-0.0008302	0.0861284
16732	-0.000696681	0.0818443
16771	-0.0008302	0.0793991
16810	-0.000887422	0.0775304
16849	-0.000944644	0.0766037
16888	-0.000849274	0.0749802
16927	-0.000792052	0.0731624
16966	-0.000639459	0.0730148
17005	-0.000811126	0.0710396
17044	-0.0008302	0.0704464
17083	-0.000772977	0.0675405
17122	-0.000906496	0.0668112
17161	-0.000772977	0.0658433
17200	-0.000944644	0.0663333
17239	-0.000792052	0.0639034
17278	-0.000944644	0.0620322
17317	-0.000792052	0.0613616
17356	-0.000944644	0.061134
17395	-0.000849274	0.0597829
17434	-0.000906496	0.0575545
17473	-0.000944644	0.0573107
17512	-0.000811126	0.0569817
17551	-0.000944644	0.0570361
17590	-0.000906496	0.0547699
17629	-0.000715755	0.0541945
17668	-0.000772977	0.0530919
17707	-0.000944644	0.053784
17746	-0.0008302	0.0518986
17785	-0.000868348	0.0514384
17824	-0.000658533	0.0510372
17863	-0.000734829	0.0512225
17902	-0.000849274	0.0504078
17941	-0.000849274	0.0493569
17980	-0.000772977	0.0489425
18019	-0.000544088	0.0483631
18058	-0.00092557	0.049005
18097	-0.00092557	0.0470332
18136	-0.00109724	0.0468919
18175	-0.000696681	0.0466013
18214	-0.000868348	0.0474339
18253	-0.000868348	0.0455671
18292	-0.00092557	0.0451324
18331	-0.0008302	0.045004
18370	-0.000734829	0.0453281
18409	-0.000734829	0.0446115
18448	-0.000811126	0.0433858
18487	-0.000792052	0.0432079
18526	-0.000849274	0.0429106
18565	-0.000734829	0.0434808
18604	-0.000792052	0.0420049
18643	-0.000849274	0.0419709
18682	-0.000658533	0.0416863
18721	-0.00092557	0.0423318
18760	-0.000906496	0.0406108
18799	-0.00102094	0.040296
18838	-0.000734829	0.0400922
18877	-0.000772977	0.0405081
18916	-0.000601311	0.03981
18955	-0.000734829	0.0390303
18994	-0.0008302	0.038971
19033	-0.000677607	0.0387628
19072	-0.000982793	0.0391696
19111	-0.000715755	0.0377488
19150	-0.0008302	0.0378492
19189	-0.000811126	0.0376258
19228	-0.00092557	0.0385472
19267	-0.000887422	0.0372086
19306	-0.0008302	0.0371193
19345	-0.000982793	0.0367924
19384	-0.000772977	0.0371654
19423	-0.000792052	0.0366919
19462	-0.000792052	0.0358846
19501	-0.000906496	0.0358608
19540	-0.000772977	0.0355339
19579	-0.000601311	0.0360784
19618	-0.000849274	0.0348464
19657	-0.000772977	0.0348192
19696	-0.000753903	0.0345639
19735	-0.000772977	0.0354437
19774	-0.000811126	0.0344765
19813	-0.000811126	0.0344402
19852	-0.000582236	0.0342448
19891	-0.0008302	0.0347827
19930	-0.000887422	0.0341962
19969	-0.000849274	0.0337411
20008	-0.000696681	0.0333967
20047	-0.000887422	0.0334006
20086	-0.00092557	0.033575
20125	-0.000811126	0.0326129
20164	-0.000906496	0.0325841
20203	-0.000887422	0.0323047
20242	-0.0008302	0.0332149
20281	-0.000753903	0.032176
20320	-0.000792052	0.0322324
20359	-0.000887422	0.0320938
20398	-0.00092557	0.0326979
20437	-0.000868348	0.0318066
20476	-0.000849274	0.0312764
20515	-0.0008302	0.0313275
20554	-0.00092557	0.0315085
20593	-0.000734829	0.0315939
20632	-0.000868348	0.0307613
20671	-0.000982793	0.0310592
20710	-0.000868348	0.0309873
20749	-0.000868348	0.0313937
20788	-0.000715755	0.0303113
20827	-0.0008302	0.0305082
20866	-0.000658533	0.030329
20905	-0.000849274	0.0309119
20944	-0.000772977	0.0301553
20983	-0.000887422	0.0297644
21022	-0.000772977	0.0296673
21061	-0.000963718	0.0297599
21100	-0.000696681	0.0297881
21139	-0.000734829	0.0290532
21178	-0.000753903	0.0291222
21217	-0.000639459	0.0290765
21256	-0.00107816	0.0297078
21295	-0.000982793	0.0288287
21334	-0.000849274	0.0288118
21373	-0.000811126	0.0284425
21412	-0.000849274	0.0287598
21451	-0.000887422	0.0283976
21490	-0.000772977	0.0281141
21529	-0.000906496	0.0280957
21568	-0.000715755	0.0283512
21607	-0.000811126	0.0278421
21646	-0.000887422	0.02702
21685	-0.000792052	0.0270849
21724	-0.000715755	0.0269689
21763	-0.00100187	0.0279577
21802	-0.000696681	0.02716
21841	-0.000849274	0.0272797
21880	-0.000772977	0.027369
21919	-0.0008302	0.0278909
21958	-0.00115446	0.0272009
21997	-0.000906496	0.0267916
22036	-0.000734829	0.0269474
22075	-0.000734829	0.0271319
22114	-0.000982793	0.0269974
22153	-0.000849274	0.0261121
22192	-0.000792052	0.026162
22231	-0.000906496	0.0260841
22270	-0.000734829	0.0266536
22309	-0.000753903	0.0257538
22348	-0.000868348	0.0257788
22387	-0.000792052	0.0257305
22426	-0.000868348	0.0263524
22465	-0.000792052	0.0256027
22504	-0.00092557	0.0255197
22543	-0.00092557	0.0254346
22582	-0.000772977	0.0256374
22621	-0.000696681	0.0255313
22660	-0.000792052	0.0249175
22699	-0.000887422	0.0249651
22738	-0.000963718	0.0250013
22777	-0.000753903	0.0256102
22816	-0.000639459	0.0247148
22855	-0.000639459	0.024558
22894	-0.000811126	0.0246447
22933	-0.000887422	0.0252551
22972	-0.000792052	0.0245515
23011	-0.000982793	0.0244937
23050	-0.000734829	0.0245513
23089	-0.000696681	0.0247767
23128	-0.000753903	0.0246212
23167	-0.000982793	0.0242575
23206	-0.000944644	0.0244518
23245	-0.000792052	0.0244975
23284	-0.000792052	0.024981
23323	-0.000639459	0.0241922
23362	-0.0008302	0.0241849
23401	-0.000849274	0.0238613
23440	-0.000715755	0.0245756
23479	-0.000792052	0.0236538
23518	-0.00092557	0.0234737
23557	-0.000753903	0.0234895
23596	-0.000811126	0.0236902
23635	-0.0008302	0.0234864
23674	-0.000715755	0.0230481
23713	-0.000906496	0.0227782
23752	-0.000849274	0.0228324
23791	-0.0008302	0.0234054
23830	-0.000772977	0.0227478
23869	-0.000849274	0.0226673
23908	-0.000734829	0.0226954
23947	-0.000601311	0.0230151
23986	-0.000658533	0.0223567
24025	-0.000753903	0.022368
24064	-0.000811126	0.0223227
24103	-0.000734829	0.0225534
24142	-0.0008302	0.0223809
24181	-0.000811126	0.0222215
24220	-0.000792052	0.0224102
24259	-0.000849274	0.0224045
24298	-0.000772977	0.0228623
24337	-0.000734829	0.0220125
24376	-0.000982793	0.0220244
24415	-0.000906496	0.0219095
24454	-0.000734829	0.0224703
24493	-0.000620385	0.0217588
24532	-0.000849274	0.0216463
24571	-0.0008302	0.021513
24610	-0.0008302	0.0219875
24649	-0.000868348	0.0216637
24688	-0.000811126	0.0212481
24727	-0.000849274	0.0215506
24766	-0.000677607	0.0213781
24805	-0.000620385	0.0216624
24844	-0.000620385	0.0211831
24883	-0.00092557	0.0211543
24922	-0.000963718	0.0212221
24961	-0.000849274	0.0216811
25000	-0.00104001	0.021058
25039	-0.00100187	0.0211091
25078	-0.000792052	0.0210783
25117	-0.000906496	0.0213362
25156	-0.000963718	0.021165
25195	-0.000906496	0.0207572
25234	-3.00123	-254.359
25273	-3.00148	-258.832
25312	-3.00134	-266.548
25351	-3.00132	-273.25
25390	-3.00125	-278.508
25429	-3.00132	-282.452
25468	-3.00113	-285.579
25507	-3.00151	-287.562
25546	-3.00117	-289.086
25585	-3.00127	-290.375
25624	-3.00134	-291.358
25663	-3.0013	-291.829
25702	-3.0013	-292.148
25741	-3.0014	-292.01
25780	-3.00144	-291.961
25819	-3.00127	-291.842
25858	-3.0014	-291.513
25897	-3.00119	-291.342
25936	-3.00125	-290.707
25975	-3.00142	-289.991
26014	-3.00117	-289.178
26053	-3.00129	-288.631
26092	-3.00129	-287.604
26131	-0.000853079	10.6356
26170	-0.000757709	4.76438
26209	-0.000700487	2.73562
26248	-0.000986598	1.8097
26287	-0.000776783	1.40866
26326	-0.000795857	1.18974
26365	-0.000910302	1.03734
26404	-0.00106289	0.93483
26443	-0.000814931	0.85627
26482	-0.000681412	0.795565
26521	-0.000719561	0.740565
26560	-0.000910302	0.69411
26599	-0.000814931	0.653446
26638	-0.000738635	0.619212
26677	-0.000662338	0.588151
26716	-0.000757709	0.559759
26755	-0.00094845	0.536365
26794	-0.000872154	0.516875
26833	-0.000853079	0.501782
26872	-0.000853079	0.486623
26911	-0.00094845	0.471787
26950	-0.000662338	0.459929
26989	-0.00100567	0.450783
27028	-0.000776783	0.439897
27067	-0.000910302	0.430627
27106	-0.00100567	0.422776
27145	-0.000719561	0.415735
27184	-0.000738635	0.407637
27223	-0.00113919	0.399465
27262	-0.000738635	0.391588
27301	-0.000891228	0.384202
27340	-0.000662338	0.376852
27379	-0.00100567	0.368241
27418	-0.000776783	0.360693
27457	-0.000643265	0.354278
27496	-0.000757709	0.348323
27535	-0.000662338	0.340673
27574	-0.000834005	0.334015
27613	-0.000738635	0.327667
27652	-0.000929376	0.322136
27691	-0.000834005	0.316009
27730	-0.000834005	0.309702
27769	-0.000795857	0.304685
27808	-0.000795857	0.299274
27847	-0.000738635	0.29391
27886	-0.000795857	0.287283
27925	-0.000662338	0.282356
27964	-0.000834005	0.277312
28003	-0.000853079	0.272945
28042	-0.000929376	0.267329
28081	-0.000814931	0.262257
28120	-0.000910302	0.2575
28159	-0.00102475	0.253498
28198	-0.000795857	0.248572
28237	-0.000795857	0.243992
28276	-0.000700487	0.240048
28315	-0.00106289	0.236108
28354	-0.000967524	0.232405
28393	-0.00106289	0.227724
28432	-0.000662338	0.223816
28471	-0.000738635	0.22009
28510	-0.000757709	0.216946
28549	-0.000700487	0.212284
28588	-0.000853079	0.208425
28627	-0.000853079	0.204828
28666	-0.00108197	0.202059
28705	-0.000834005	0.19819
28744	-0.00094845	0.194498
28783	-0.000986598	0.191314
28822	1.49931	33.2028
28861	1.49933	19.2215
28900	1.49937	13.6029
28939	1.49941	10.6583
28978	1.49925	8.8886
29017	1.49935	7.7334
29056	1.49933	7.00099
29095	1.49946	6.50455
29134	1.49941	6.13154
29173	1.49916	5.74387
29212	1.49927	5.41135
29251	1.49929	5.18387
29290	1.49929	4.91676
29329	1.49927	4.68095
29368	1.49937	4.43638
29407	1.49942	4.37482
29446	1.49914	4.2282
29485	1.49937	4.10007
29524	1.49939	3.9261
29563	1.49941	3.90912
29602	1.49923	3.94175
29641	1.49944	3.94158
29680	1.49939	3.91121
29719	1.49944	3.79974
29758	1.49929	3.84484
29797	1.49939	3.83603
29836	1.49935	3.8209
29875	1.49944	3.66172
29914	1.49935	3.67006
29953	1.4992	3.64415
29992	1.49921	3.641
30031	1.49931	3.59677
30070	1.49921	3.54726
30109	1.49933	3.54935
30148	1.49925	3.54013
30187	1.49921	3.52378
30226	1.49927	3.44594
30265	1.49929	3.44768
30304	1.49925	3.45501
30343	1.49935	3.45413
30382	1.49925	3.39006
30421	1.49937	3.36764
30460	1.49918	3.37465
30499	1.49918	3.37728
30538	1.49921	3.33222
30577	1.49937	3.26636
30616	-0.000696681	-2.03967
30655	-0.0008302	-0.345015
30694	-0.000849274	-0.133025
30733	-0.000849274	-0.0659793
30772	-0.00092557	-0.0332595
30811	-0.000734829	-0.0139061
30850	-0.000696681	-0.000769614
30889	-0.000715755	0.00660248
30928	-0.000792052	0.0121229
30967	-0.000715755	0.0174337
31006	-0.000753903	0.0215857
31045	-0.000887422	0.025102
31084	-0.000677607	0.0258953
31123	-0.000849274	0.0280393
31162	-0.000887422	0.0295049
31201	-0.000772977	0.0317447
31240	-0.000792052	0.0314609
31279	-0.000849274	0.0322968
31318	-0.00100187	0.0328233
31357	-0.000753903	0.034125
31396	-0.000887422	0.0334812
31435	-0.000811126	0.0333118
31474	-0.000734829	0.0338013
31513	-0.0008302	0.0341013
31552	-0.000944644	0.0343747
31591	-0.000868348	0.0335044
31630	-0.000982793	0.0337389
31669	-0.000753903	0.0338063
31708	-0.000753903	0.0345797
31747	-0.000887422	0.0331225
31786	-0.00100187	0.0330873
31825	-0.00100187	0.0329115
31864	-0.000944644	0.0338947
31903	-0.000715755	0.0329126
31942	-0.000868348	0.0322313
31981	-0.000849274	0.0323604
32020	-0.000772977	0.0325541
32059	-0.000772977	0.0324898
32098	-0.000849274	0.0314358
32137	-0.000849274	0.0314843
32176	-0.000792052	0.031443
32215	-0.000849274	0.0319049
32254	-0.000868348	0.0308705
32293	-0.000868348	0.0307983
32332	-0.00092557	0.0307751
32371	-0.000868348	0.0311042
32410	-0.000811126	0.0301144
32449	-0.000601311	0.0298417
32488	-0.000792052	0.0301017
32527	-0.000906496	0.0301953
32566	-0.000753903	0.0301656
32605	-0.000734829	0.0290748
32644	-0.000849274	0.0291986
32683	-0.000944644	0.0289161
32722	-0.000887422	0.0295709
32761	-0.00100187	0.0284907
32800	-0.000792052	0.0283273
32839	-0.000772977	0.0283545
32878	-0.000772977	0.0290192
32917	-0.000906496	0.0280981
32956	-0.000658533	0.0279953
32995	-0.000696681	0.0279833
33034	-0.000963718	0.0280941
33073	-0.00092557	0.0280083
33112	-0.000734829	0.0272326
33151	-0.000696681	0.0273226
33190	-0.000715755	0.0269844
33229	-0.000887422	0.0275939
33268	-0.000868348	0.0265992
33307	-0.0008302	0.0264649
33346	-0.000658533	0.0263758
33385	-0.000715755	0.0269297
33424	-0.000772977	0.0259052
33463	-0.000811126	0.0256749
33502	-0.000868348	0.0255504
33541	-0.000868348	0.0259243
33580	-0.000811126	0.0256284
33619	-0.00092557	0.0250645
33658	-0.000734829	0.0251324
33697	-0.000696681	0.0251173
33736	-0.000849274	0.0255095
33775	-0.000982793	0.0247402
33814	-0.000963718	0.0247105
33853	-0.000715755	0.0246858
33892	-0.000792052	0.0250739
33931	-0.000849274	0.0242072
33970	-0.000963718	0.0242247
34009	-0.000696681	0.0242302
34048	-0.000772977	0.0245106
34087	-0.000868348	0.024174
34126	-0.000811126	0.0237921
34165	-0.000944644	0.0237615
34204	-0.000811126	0.023737
34243	-0.00092557	0.0239935
34282	-0.00105909	0.0232767
34321	-0.000715755	0.0231682
34360	-0.000849274	0.0231063
34399	-0.000849274	0.023634
34438	-0.0008302	0.0228896
34477	-0.000906496	0.0228851
34516	-0.00104001	0.0229165
34555	-0.00100187	0.0230954
34594	-0.000811126	0.02289
34633	-0.000887422	0.0224085
34672	-0.00102094	0.0223526
34711	-0.0008302	0.0224502
34750	-0.000811126	0.0228448
34789	-0.00105909	0.0219585
34828	-0.000849274	0.0220793
34867	-0.000753903	0.0219081
34906	-0.000887422	0.0224858
34945	-0.000944644	0.0215607
34984	-0.000849274	0.0215536
35023	-0.000906496	0.0215055
35062	-0.000792052	0.0217972
35101	-0.000887422	0.0215358
35140	-0.000734829	0.021328
35179	-0.000792052	0.0213457
35218	-0.000963718	0.0211506
35257	-0.00092557	0.0215017
35296	-0.000772977	0.020797
35335	-0.000868348	0.0209244
35374	-0.000906496	0.020983
35413	-0.000734829	0.0214315
35452	-0.000849274	0.0208465
35491	-0.00107816	0.0207418
35530	-0.000772977	0.0207482
35569	-0.000772977	0.0210492
35608	-0.000677607	0.0206533
35647	-0.000963718	0.020393
35686	-0.000677607	0.0204978
35725	-0.000772977	0.0204407
35764	-0.0008302	0.0205136
35803	-0.000887422	0.0199288
35842	-0.0008302	0.0201606
35881	-0.000944644	0.0199268
35920	-0.000887422	0.0204372
35959	-0.000868348	0.0198295
35998	-0.000811126	0.0196356
36037	-0.000811126	0.019851
36076	-0.00092557	0.0200056
36115	-0.000868348	0.0197
36154	-0.000849274	0.0195175
36193	-0.000792052	0.0195254
36232	-0.000753903	0.0194922
36271	-0.000982793	0.0197195
36310	-0.000772977	0.0192463
36349	-0.000715755	0.0191766
36388	-0.000963718	0.0190898
36427	-0.000887422	0.0195608
36466	-0.000772977	0.018971
36505	-0.000811126	0.0189107
36544	-0.000792052	0.0188959
36583	-0.000887422	0.0190655
36622	-0.000467792	0.0188432
36661	-0.000887422	0.0185498
36700	-0.0008302	0.0186259
36739	-0.000677607	0.0186918
36778	-0.000982793	0.0187206
36817	-0.000753903	0.0183411
36856	-0.000887422	0.0183708
36895	-0.000486866	0.0182993
36934	-0.000734829	0.0187062
36973	-0.000772977	0.018036
37012	-0.000906496	0.0179976
37051	-0.000772977	0.0179953
37090	-0.0008302	0.0184085
37129	-0.00092557	0.018032
37168	-0.00092557	0.0177246
37207	-0.000906496	0.0177679
37246	-0.0008302	0.0179308
37285	-0.000849274	0.0179784
37324	-0.000849274	0.0175919
37363	-0.000849274	0.0175953
37402	-0.000677607	0.0175899
37441	-0.0008302	0.017904
37480	-0.000696681	0.0174207
37519	-0.000963718	0.0175224
37558	-0.000715755	0.0175358
37597	-0.000811126	0.017837
37636	-0.00092557	0.0175031
37675	-0.00100187	0.0172258
37714	-0.000734829	0.0173436
37753	-0.000772977	0.0174198
37792	-0.00092557	0.0175173
37831	-0.00092557	0.0171334
37870	-0.000849274	0.01715
37909	-0.000963718	0.0171113
37948	-0.000715755	0.0174549
37987	-0.00092557	0.01691
38026	-0.000734829	0.0169592
38065	-0.000944644	0.0169932
38104	-0.000963718	0.017271
38143	-0.0008302	0.0168563
38182	-0.0008302	0.0167893
38221	-0.000906496	0.0168527
38260	-0.00092557	0.0168824
38299	-0.000982793	0.0168808
38338	-0.000753903	0.0166163
38377	-0.0008302	0.0166174
38416	-0.0008302	0.0166142
38455	-0.000887422	0.0169483
38494	-0.0008302	0.0163919
38533	-0.000906496	0.0164814
38572	-0.00104001	0.0164353
38611	-0.000906496	0.0167121
38650	-0.000696681	0.0162822
38689	-0.000772977	0.0161778
38728	-0.000772977	0.0161192
38767	-0.000792052	0.0163692
38806	-0.000849274	0.0164178
38845	-0.000849274	0.0160408
38884	-0.000906496	0.0161235
38923	-0.0008302	0.0160042
38962	-0.000868348	0.0162791
39001	-0.000677607	0.0157311
39040	-0.0008302	0.0158283
39079	-0.00104001	0.0157882
39118	-0.00100187	0.0161045
39157	-0.000944644	0.0157954
39196	-0.000753903	0.015743
39235	-0.000811126	0.0157506
39274	-0.000734829	0.0157814
39313	-0.00092557	0.0157197
39352	-0.00092557	0.0155585
39391	-0.000772977	0.0156347
39430	-0.000849274	0.0156146
39469	-0.000734829	0.0158778
39508	-0.000868348	0.01543
39547	-0.000734829	0.015441
39586	-0.000963718	0.0154324
39625	-3.00134	-259.298
39664	-3.00138	-250.474
39703	-3.00134	-253.668
39742	-3.00136	-257.728
39781	-3.00129	-260.229
39820	-3.00151	-262.257
39859	-3.00136	-264.665
39898	-3.00117	-266.601
39937	-3.00136	-267.29
39976	-3.00136	-267.36
40015	-3.00146	-267.547
40054	-3.00123	-267.586
40093	-3.0014	-267.845
40132	-3.00129	-267.4
40171	-3.00129	-267.067
40210	-3.0013	-266.759
40249	-3.00138	-266.138
40288	-3.00144	-265.847
40327	-3.00136	-265.193
40366	-3.00129	-264.585
40405	-3.00151	-263.849
40444	-3.00142	-263.106
40483	-3.00132	-261.542
40522	-0.000910302	15.1167
40561	-0.000853079	5.14124
40600	-0.000910302	2.75466
40639	-0.000929376	1.78612
40678	-0.00102475	1.38259
40717	-0.000757709	1.15863
40756	-0.000986598	1.00858
40795	-0.00104382	0.901862
40834	-0.000891228	0.819779
40873	-0.000776783	0.74876
40912	-0.000795857	0.686898
40951	-0.000929376	0.634296
40990	-0.000967524	0.592112
41029	-0.000872154	0.556083
41068	-0.000872154	0.527588
41107	-0.000757709	0.504423
41146	-0.000929376	0.484522
41185	-0.00062419	0.463988
41224	-0.000872154	0.447456
41263	-0.000757709	0.432546
41302	-0.000795857	0.418139
41341	-0.000738635	0.404939
41380	-0.000853079	0.39143
41419	-0.000929376	0.379274
41458	-0.00062419	0.367075
41497	-0.000891228	0.355869
41536	-0.000586042	0.343884
41575	-0.000834005	0.332495
41614	-0.000776783	0.321629
41653	-0.000757709	0.310968
41692	-0.000738635	0.299874
41731	-0.000814931	0.289569
41770	-0.000681412	0.279975
41809	-0.000872154	0.270694
41848	-0.000891228	0.261921
41887	-0.000834005	0.252871
41926	-0.000776783	0.244472
41965	-0.000891228	0.236411
42004	-0.000967524	0.229362
42043	-0.000853079	0.221459
42082	-0.000681412	0.214649
42121	-0.000891228	0.208318
42160	-0.000814931	0.202611
42199	-0.000795857	0.1965
42238	-0.000814931	0.190995
42277	-0.000814931	0.185832
42316	-0.00102475	0.181084
42355	-0.000700487	0.176393
42394	-0.000700487	0.17168
42433	-0.000872154	0.167485
42472	-0.000986598	0.163689
42511	-0.000719561	0.160052
42550	-0.000738635	0.156195
42589	-0.000738635	0.152664
42628	-0.000795857	0.14933
42667	-0.000643265	0.146487
42706	-0.000853079	0.143196
42745	-0.000681412	0.140235
42784	-0.000853079	0.137693
42823	-0.000719561	0.135324
42862	-0.00106289	0.132762
42901	-0.000814931	0.129985
42940	-0.000929376	0.127606
42979	-0.000738635	0.125344
43018	-0.000643265	0.123491
43057	-0.000681412	0.121012
43096	-0.000929376	0.119085
43135	-0.000834005	0.117322
43174	-0.000814931	0.115599
43213	1.49923	38.6028
43252	1.49937	18.8268
43291	1.49918	12.6441
43330	1.49931	9.51427
43369	1.49935	7.72794
43408	1.49918	6.67197
43447	1.49944	5.92027
43486	1.49948	5.35699
43525	1.49921	4.80612
43564	1.49921	4.62184
43603	1.49939	4.36015
43642	1.49927	4.18194
43681	1.49935	4.00964
43720	1.49935	3.96189
43759	1.49931	4.06255
43798	1.4992	4.07611
43837	1.49914	4.04838
43876	1.49937	3.9
43915	1.49941	3.92088
43954	1.49916	3.94327
43993	1.49921	3.9431
44032	1.49931	3.85616
44071	1.49942	3.80089
44110	1.49935	3.80647
44149	1.49912	3.79154
44188	1.49927	3.75986
44227	1.49944	3.69305
44266	1.49933	3.67752
44305	1.49944	3.68713
44344	1.49921	3.62804
44383	1.49916	3.56454
44422	1.49931	3.54318
44461	1.49962	3.57503
44500	1.49948	3.55143
44539	1.49939	3.50229
44578	1.49942	3.42907
44617	1.49946	3.43133
44656	1.49927	3.428
44695	1.49937	3.40362
44734	1.49939	3.34476
44773	1.49937	3.35237
44812	1.49937	3.3401
44851	1.49944	3.33112
44890	1.49942	3.28004
44929	1.4992	3.28505
44968	1.49927	3.27117
45007	-0.000734829	-7.47589
45046	-0.000753903	-0.625165
45085	-0.000753903	-0.261488
45124	-0.000868348	-0.145282
45163	-0.000849274	-0.0907432
45202	-0.0008302	-0.0591437
45241	-0.000906496	-0.0409431
45280	-0.000887422	-0.0272734
45319	-0.000811126	-0.0175143
45358	-0.000906496	-0.00949535
45397	-0.0008302	-0.00483867
45436	-0.0008302	-0.000554743
45475	-0.000849274	0.00335468
45514	-0.000753903	0.00657194
45553	-0.000963718	0.0089458
45592	-0.000734829	0.0100507
45631	-0.0008302	0.0118683
45670	-0.000658533	0.0132018
45709	-0.000715755	0.0148678
45748	-0.000772977	0.0147752
45787	-0.000887422	0.0156687
45826	-0.000601311	0.01648
45865	-0.000868348	0.0177949
45904	-0.000753903	0.0173045
45943	-0.00092557	0.0176284
45982	-0.000753903	0.0180818
46021	-0.00109724	0.0187077
46060	-0.00092557	0.0187807
46099	-0.000639459	0.0184547
46138	-0.00107816	0.0189401
46177	-0.000696681	0.0191753
46216	-0.0008302	0.019683
46255	-0.000906496	0.0190754
46294	-0.00092557	0.0192208
46333	-0.0008302	0.019262
46372	-0.000753903	0.0199466
46411	-0.000868348	0.0192254
46450	-0.000887422	0.0191631
46489	-0.000849274	0.0194253
46528	-0.000963718	0.0197233
46567	-0.00100187	0.0194592
46606	-0.000772977	0.0190934
46645	-0.000792052	0.019294
46684	-0.000734829	0.0194243
46723	-0.000849274	0.019761
46762	-0.000944644	0.0190319
46801	-0.00092557	0.0191316
46840	-0.000906496	0.0190391
46879	-0.000734829	0.0196413
46918	-0.000772977	0.018808
46957	-0.000734829	0.0188442
46996	-0.000811126	0.0189396
47035	-0.000868348	0.0192101
47074	-0.00100187	0.0189311
47113	-0.000849274	0.0185745
47152	-0.0008302	0.018565
47191	-0.000753903	0.0187499
47230	-0.000772977	0.0188897
47269	-0.000772977	0.0182296
47308	-0.000906496	0.0184821
47347	-0.0008302	0.0183807
47386	-0.000944644	0.0188816
47425	-0.00100187	0.0181452
47464	-0.00105909	0.0181757
47503	-0.000677607	0.018171
47542	-0.000906496	0.018483
47581	-0.0008302	0.0180963
47620	-0.000849274	0.0178374
47659	-0.000811126	0.0177949
47698	-0.000963718	0.0179008
47737	-0.000715755	0.0180165
47776	-0.000887422	0.0174946
47815	-0.000849274	0.0176018
47854	-0.0008302	0.0176818
47893	-0.000639459	0.0180445
47932	-0.000906496	0.0173743
47971	-0.000792052	0.0173616
48010	-0.000811126	0.0173161
48049	-0.000868348	0.0176041
48088	-0.000696681	0.0169256
48127	-0.000849274	0.0170325
48166	-0.000868348	0.0170687
48205	-0.000753903	0.0171784
48244	-0.000811126	0.0171658
48283	-0.000639459	0.0167586
48322	-0.00105909	0.0167714
48361	-0.00092557	0.0167029
48400	-0.000963718	0.0171186
48439	-0.000982793	0.0165881
48478	-0.00107816	0.0165464
48517	-0.0008302	0.0166773
48556	-0.000753903	0.0168551
48595	-0.000677607	0.016402
48634	-0.000620385	0.0162878
48673	-0.000849274	0.0163908
48712	-0.000906496	0.0163883
48751	-0.000811126	0.0164555
48790	-0.000753903	0.0160234
48829	-0.000772977	0.0160184
48868	-0.000563162	0.0159509
48907	-0.000944644	0.016299
48946	-0.000792052	0.0158068
48985	-0.000792052	0.0158517
49024	-0.000715755	0.0158492
49063	-0.000772977	0.016023
49102	-0.0008302	0.0157441
49141	-0.000868348	0.0155631
49180	-0.000696681	0.0155885
49219	-0.000677607	0.0156244
49258	-0.00092557	0.0157176
49297	-0.000887422	0.0154379
49336	-0.000887422	0.0153995
49375	-0.000792052	0.0153231
49414	-0.000792052	0.0155875
49453	-0.000906496	0.0151137
49492	-0.000868348	0.0152102
49531	-0.000887422	0.0147911
49570	-0.000887422	0.015454
49609	-0.000887422	0.0149657
49648	-0.000868348	0.0149237
49687	-0.000887422	0.014794
49726	-0.000887422	0.0150261
49765	-0.00092557	0.0149651
49804	-0.000849274	0.0147467
49843	-0.000887422	0.0147788
49882	-0.00092557	0.0146518
49921	-0.0008302	0.0150216
49960	-0.000811126	0.0144518
49999	-0.000658533	0.0145312
50038	-0.000887422	0.0144772
50077	-0.0008302	0.0148088
50116	-0.000696681	0.0144793
50155	-0.000906496	0.0143523
50194	-0.000792052	0.0143783
50233	-0.000811126	0.0145781
50272	-0.000906496	0.0144676
50311	-0.000944644	0.0142541
50350	-0.000715755	0.0142121
50389	-0.0008302	0.014278
50428	-0.00092557	0.0145049
50467	-0.000944644	0.0140259
50506	-0.000715755	0.0140601
50545	-0.000772977	0.0141014
50584	-0.000887422	0.0143185
50623	-0.00092557	0.0137895
50662	-0.00092557	0.013819
50701	-0.000811126	0.0138335
50740	-0.000868348	0.0139577
50779	-0.000811126	0.0138508
50818	-0.000696681	0.0135637
50857	-0.000849274	0.0136982
50896	-0.00102094	0.0135216
50935	-0.000906496	0.0138448
50974	-0.000906496	0.0134816
51013	-0.00092557	0.0134767
51052	-0.000792052	0.0135418
51091	-0.000753903	0.0137435
51130	-0.000715755	0.0134466
51169	-0.000868348	0.0133429
51208	-0.000601311	0.0133409
51247	-0.000906496	0.0134625
51286	-0.000753903	0.0133758
51325	-0.000677607	0.0132664
51364	-0.000811126	0.0131935
51403	-0.000792052	0.0133758
51442	-0.000677607	0.0134672
51481	-0.00102094	0.0129912
51520	-0.000792052	0.0130876
51559	-0.0008302	0.0128038
51598	-0.000887422	0.013456
51637	-0.000715755	0.0128762
51676	-0.000696681	0.0130301
51715	-0.000906496	0.0129688
51754	-0.000753903	0.0129248
51793	-0.000811126	0.0129342
51832	-0.000772977	0.0128949
51871	-0.00092557	0.0128962
51910	-0.000887422	0.0129481
51949	-0.0008302	0.0130206
51988	-0.000772977	0.0126889
52027	-0.00102094	0.0127416
52066	-0.000715755	0.0126736
52105	-0.000887422	0.0128688
52144	-0.000887422	0.0125679
52183	-0.000849274	0.0124989
52222	-0.000792052	0.0125786
52261	-0.000696681	0.0127484
52300	-0.000963718	0.0126266
52339	-0.000963718	0.0124217
52378	-0.000734829	0.0124713
52417	-0.000734829	0.0124614
52456	-0.000792052	0.0126679
52495	-0.000753903	0.0123085
52534	-0.000544088	0.0123344
52573	-0.000887422	0.0123341
52612	-0.000753903	0.0126102
52651	-0.00092557	0.0122509
52690	-0.00102094	0.0122335
52729	-0.0008302	0.0122231
52768	-0.000677607	0.0123737
52807	-0.000639459	0.0122172
52846	-0.000772977	0.0121015
52885	-0.000944644	0.0121096
52924	-0.000753903	0.012134
52963	-0.0008302	0.0122809
53002	-0.000772977	0.0118648
53041	-0.000696681	0.0119538
53080	-0.000868348	0.0120119
53119	-0.000849274	0.0122502
53158	-0.000849274	0.0117962
53197	-0.00092557	0.0118483
53236	-0.000753903	0.0118756
53275	-0.00092557	0.0120585
53314	-0.000887422	0.0118366
53353	-0.0008302	0.0117977
53392	-0.000772977	0.0118619
53431	-0.000792052	0.0118993
53470	-0.000906496	0.0119657
53509	-0.000792052	0.011608
53548	-0.000849274	0.0116783
53587	-0.0008302	0.011624
53626	-0.000944644	0.0118873
53665	-0.000715755	0.011501
53704	-0.000944644	0.0115559
53743	-0.000753903	0.0115505
53782	-0.000906496	0.0117748
53821	-0.000811126	0.0116358
53860	-0.000849274	0.0115357
53899	-0.000639459	0.0115371
53938	-0.000792052	0.0114903
53977	-0.000734829	0.0115021
54016	-3.00129	-269.283
54055	-3.00123	-236.92
54094	-3.00127	-232.732
54133	-3.00115	-234.272
54172	-3.00111	-236.366
54211	-3.00136	-238.093
54250	-3.0014	-239.409
54289	-3.00115	-240.204
54328	-3.00136	-241.511
54367	-3.00134	-241.661
54406	-3.00146	-241.656
54445	-3.00115	-241.595
54484	-3.0013	-241.194
54523	-3.0013	-240.779
54562	-3.00142	-241.111
54601	-3.00121	-240.862
54640	-3.00098	-240.46
54679	-3.00134	-240.462
54718	-3.00117	-240.07
54757	-3.00134	-239.659
54796	-3.00129	-239.216
54835	-3.0014	-238.706
54874	-3.00132	-238.224
54913	-0.000967524	21.152
54952	-0.00094845	6.39168
54991	-0.00102475	3.34799
55030	-0.000891228	2.16839
55069	-0.000757709	1.62258
55108	-0.000929376	1.30126
55147	-0.00094845	1.08497
55186	-0.000738635	0.924231
55225	-0.000643265	0.807995
55264	-0.000910302	0.722811
55303	-0.000605116	0.65988
55342	-0.000681412	0.608631
55381	-0.000834005	0.562893
55420	-0.000700487	0.521092
55459	-0.000738635	0.480998
55498	-0.000605116	0.447113
55537	-0.000891228	0.415872
55576	-0.000872154	0.388474
55615	-0.000834005	0.364102
55654	-0.000910302	0.342915
55693	-0.00104382	0.322936
55732	-0.000719561	0.305057
55771	-0.000776783	0.288586
55810	-0.000795857	0.273637
55849	-0.000872154	0.260193
55888	-0.000757709	0.247452
55927	-0.000795857	0.235965
55966	-0.000757709	0.22564
56005	-0.00100567	0.216322
56044	-0.00062419	0.206782
56083	-0.000738635	0.198724
56122	-0.000967524	0.191387
56161	-0.000814931	0.184765
56200	-0.00094845	0.178143
56239	-0.000547894	0.172141
56278	-0.000738635	0.166524
56317	-0.000738635	0.161472
56356	-0.000891228	0.156553
56395	-0.000738635	0.151781
56434	-0.000662338	0.147398
56473	-0.000910302	0.143308
56512	-0.000738635	0.139483
56551	-0.000872154	0.135644
56590	-0.000853079	0.132201
56629	-0.000738635	0.12885
56668	-0.000929376	0.125927
56707	-0.000872154	0.122657
56746	-0.000891228	0.119805
56785	-0.000853079	0.117023
56824	-0.000776783	0.114586
56863	-0.00094845	0.112127
56902	-0.000776783	0.109583
56941	-0.000910302	0.107297
56980	-0.000795857	0.105163
57019	-0.000929376	0.103182
57058	-0.000776783	0.100937
57097	-0.000795857	0.0990254
57136	-0.000986598	0.0972807
57175	-0.000929376	0.0957037
57214	-0.000967524	0.0937423
57253	-0.000795857	0.0919326
57292	-0.000795857	0.090445
57331	-0.000891228	0.0890431
57370	-0.000738635	0.0875897
57409	-0.000795857	0.0858034
57448	-0.000834005	0.0846149
57487	-0.000853079	0.0832998
57526	-0.000681412	0.0820021
57565	-0.000834005	0.0805565
57600	-0.000929376	0.0795985