File: Data_19_Experiment(05)/CA_001_C01.txt
time/s	Ewe/V	<I>/mA
1	1.4994	87.0838
40	1.49925	8.62585
79	1.49925	6.59736
118	1.49939	5.76515
157	1.49929	5.33194
196	1.49942	5.13763
235	1.49925	5.11791
274	1.49942	5.16425
313	1.49948	5.23264
352	1.49925	5.33826
391	1.49942	5.45833
430	1.49923	5.56691
469	1.49923	5.69021
508	1.49931	5.77901
547	1.49933	5.88929
586	1.49925	5.98589
625	1.49927	6.0738
664	1.49933	6.17586
703	1.49925	6.2601
742	1.49919	6.37243
781	1.49933	6.46721
820	1.49927	6.58044
859	1.49933	6.68125
898	1.49937	6.7864
937	1.49925	6.90023
976	1.49944	7.04561
1015	1.49939	7.14844
1054	1.49931	7.23362
1093	1.49952	7.34502
1132	1.49933	7.50185
1171	1.49931	7.63356
1210	1.4994	7.75607
1249	1.49937	7.87324
1288	1.49933	8.02416
1327	1.49929	8.15398
1366	1.49927	8.33837
1405	1.49925	8.51055
1444	1.49946	8.63039
1483	1.49925	8.73624
1522	1.49929	8.85902
1561	1.49933	8.94939
1600	1.49933	9.08088
1639	1.49931	9.20422
1678	1.49935	9.31781
1717	1.49927	9.40947
1756	1.49937	9.51
1795	1.49925	9.53005
1833.95	-0.00100249	-2.12792
1872.95	-0.00102156	0.52713
1911.95	-0.00115508	0.883314
1950.95	-0.000964338	0.949551
1989.95	-0.000888042	0.901988
2028.95	-0.000888042	0.785743
2067.95	-0.00100249	0.692706
2106.95	-0.000964338	0.591587
2145.95	-0.00102156	0.493585
2184.95	-0.00107878	0.414398
2223.95	-0.00100249	0.34927
2262.95	-0.00117415	0.301154
2301.95	-0.00092619	0.264836
2340.95	-0.00092619	0.241852
2379.95	-0.00100249	0.219633
2418.95	-0.000964338	0.201215
2457.95	-0.00105971	0.185842
2496.95	-0.00100249	0.175373
2535.95	-0.000964338	0.165792
2574.95	-0.00104063	0.155948
2613.95	-0.00111693	0.145889
2652.95	-0.00105971	0.13907
2691.95	-0.00111693	0.135694
2730.95	-0.00111693	0.129324
2769.95	-0.00105971	0.123419
2808.95	-0.000964338	0.119587
2847.95	-0.00102156	0.118463
2886.95	-0.000888042	0.115622
2925.95	-0.000983412	0.111733
2964.95	-0.000983412	0.10886
3003.95	-0.00100249	0.108265
3042.95	-0.00107878	0.107875
3081.95	-0.00100249	0.105163
3120.95	-0.000964338	0.103003
3159.95	-0.000983412	0.101704
3198.95	-0.00104063	0.102686
3237.95	-0.000983412	0.100259
3276.95	-0.000945264	0.0980105
3315.95	-0.00092619	0.0960219
3354.95	-0.000888042	0.0973271
3393.95	-0.000868968	0.0957651
3432.95	-0.00107878	0.0941515
3471.95	-0.00107878	0.0928987
3510.95	-0.000907116	0.0930901
3549.95	-0.000945264	0.0929701
3588.95	-0.00104063	0.0915147
3627.95	-0.00105971	0.090219
3666.95	-0.000964338	0.0899263
3705.95	-0.00107878	0.0904234
3744.95	-0.000964338	0.089292
3783.95	-0.00113601	0.0891522
3822.95	-0.000964338	0.0877686
3861.95	-0.00105971	0.0889017
3900.95	-0.00100249	0.0879964
3939.95	-0.00119323	0.0866766
3978.95	-0.00117415	0.085382
4017.95	-0.000888042	0.0861714
4056.95	-0.000868968	0.085773
4095.95	-0.000945264	0.0848829
4134.95	-0.000888042	0.0837082
4173.95	-0.000811746	0.083787
4212.95	-0.00100249	0.0842799
4251.95	-0.000983412	0.0828768
4290.95	-0.00104063	0.0818057
4329.95	-0.000907116	0.0811406
4368.95	-0.00105971	0.0821436
4407.95	-0.00107878	0.081481
4446.95	-0.00107878	0.0800795
4485.95	-0.00113601	0.0793128
4524.95	-0.000983412	0.0801358
4563.95	-0.00083082	0.0795879
4602.95	-0.00107878	0.0786125
4641.95	-0.000945264	0.0777021
4680.95	-0.000983412	0.0776738
4719.95	-0.00102156	0.0778612
4758.95	-0.000945264	0.0770706
4797.95	-0.000868968	0.0761763
4836.95	-0.00100249	0.0756837
4875.95	-0.00100249	0.0765266
4914.95	-0.00113601	0.0757745
4953.95	-0.00100249	0.0749421
4992.95	-0.000964338	0.0740223
5031.95	-0.00123138	0.07453
5070.95	-0.00104063	0.0744337
5109.95	-0.000945264	0.0734439
5148.95	-0.00104063	0.0725063
5187.95	-0.000888042	0.0725679
5226.95	-0.00092619	0.0722233
5265.95	-0.00107878	0.0717413
5304.95	-0.00105971	0.0706072
5343.95	-0.00117415	0.0697847
5382.95	-0.000983412	0.0704147
5421.95	-0.00102156	0.0699821
5460.95	-0.00102156	0.0689714
5499.95	-0.00104063	0.0682424
5538.95	-0.000964338	0.0686968
5577.95	-0.000983412	0.0680545
5616.95	-0.000907116	0.0674125
5655.95	-0.000964338	0.0664671
5694.95	-0.00102156	0.0662818
5733.95	-0.00107878	0.0664505
5772.95	-0.00105971	0.0654314
5811.95	-0.00092619	0.0646781
5850.95	-0.00104063	0.0643402
5889.95	-0.00109786	0.0646484
5928.95	-0.00100249	0.0640896
5967.95	-0.00102156	0.0631154
6006.95	-0.000849894	0.062456
6045.95	-0.000907116	0.0633514
6084.95	-0.000964338	0.0627554
6123.95	-0.00113601	0.0615502
6162.95	-0.00117415	0.0608348
6201.95	-0.000964338	0.061314
6240.95	-0.00105971	0.0612126
6279.95	-0.000964338	0.0601517
6318.95	-0.000983412	0.0594951
6357.95	-0.00105971	0.0589453
6396.95	-0.000964338	0.0593849
6435.95	-0.00102156	0.0585065
6474.95	-0.000983412	0.0575202
6513.95	-0.000945264	0.0572218
6552.95	-0.00117415	0.057984
6591.95	-0.00092619	0.0572406
6630.95	-0.00102156	0.0564379
6669.95	-0.00109786	0.0559116
6708.95	-0.00104063	0.0561365
6747.95	-0.00105971	0.0558425
6786.95	-0.000983412	0.0551851
6825.95	-0.000888042	0.0546173
6864.95	-0.000868968	0.0543355
6903.95	-0.00111693	0.0551107
6942.95	-0.000983412	0.0541619
6981.95	-0.00105971	0.0535152
7020.95	-0.00109786	0.0528946
7059.95	-0.00119323	0.0531378
7098.95	-0.00109786	0.0525809
7137.95	-0.00104063	0.0520927
7176.95	-0.00107878	0.0517195
7215.95	-0.00102156	0.0519816
7254.95	-0.00115508	0.051686
7293.95	-0.00104063	0.0509356
7332.95	-0.00100249	0.0504671
7371.95	-0.000907116	0.0506654
7410.95	-0.00105971	0.0510178
7449.95	-0.000868968	0.0503184
7488.95	-0.000907116	0.0496574
7527.95	-0.00107878	0.0489854
7566.95	-0.00104063	0.0496917
7605.95	-0.00102156	0.0491024
7644.95	-0.00105971	0.0485808
7683.95	-0.00113601	0.0480717
7722.95	-0.000964338	0.0486763
7761.95	-0.00100249	0.0481846
7800.95	-0.00111693	0.0477866
7839.95	-0.000964338	0.0467621
7878.95	-0.000983412	0.0467685
7917.95	-0.00104063	0.0470074
7956.95	-0.000868968	0.0465008
7995.95	-0.00092619	0.0461208
8034.95	-0.00100249	0.0455852
8073.95	-0.000964338	0.0457561
8112.95	-0.00111693	0.0450489
8151.95	-0.00100249	0.0450231
8190.95	-0.000983412	0.0447072
8229.95	-0.00105971	0.0448641
8268.95	-0.00105971	0.0445488
8307.95	-0.000868968	0.0437965
8346.95	-0.000983412	0.0438232
8385.95	-0.000907116	0.0436457
8424.95	-0.00102156	0.0440565
8463.95	-0.000811746	0.0433741
8502.95	-0.00109786	0.042773
8541.95	-0.000888042	0.0423077
8580.95	-0.00115508	0.0429657
8619.95	-0.000964338	0.0425223
8658.95	-0.00104063	0.0419744
8697.95	-0.00102156	0.0414997
8736.95	-0.00100249	0.0418886
8775.95	-0.00107878	0.0414851
8814.95	-0.000849894	0.0411277
8853.95	-0.000945264	0.0407836
8892.95	-0.000964338	0.0407362
8931.95	-0.00102156	0.0406007
8970.95	-0.000964338	0.0399214
9009.95	-0.00104063	0.0398983
9048.95	-0.00100249	0.0397838
9087.95	-0.000945264	0.0401623
9126.95	-0.00102156	0.039836
9165.95	-0.000868968	0.0391961
9204.95	-0.00111693	0.0389199
9243.95	-0.00109786	0.0388644
9282.95	-0.00104063	0.0385692
9321.95	-0.000945264	0.0380889
9360.95	-0.000945264	0.0379188
9399.95	-0.000888042	0.0379733
9438.95	-0.000945264	0.037687
9477.95	-0.00105971	0.0378975
9516.95	-0.00113601	0.0376605
9555.95	-0.00111693	0.0370613
9594.95	-0.000983412	0.0371441
9633.95	-0.00115508	0.0369436
9672.95	-0.000868968	0.0367554
9711.95	-0.00104063	0.0366762
9750.95	-0.00113601	0.0366527
9789.95	-0.000907116	0.0361453
9828.95	-0.00105971	0.0359798
9867.95	-0.00115508	0.0358346
9906.95	-0.000945264	0.0359397
9945.95	-0.00100249	0.0356749
9984.95	-0.000907116	0.0352716
10024	-0.00102156	0.0352815
10063	-0.00102156	0.0345736
10102	-0.00113601	0.0352339
10141	-0.000983412	0.0349348
10180	-0.00100249	0.0341338
10219	-0.00105971	0.0340787
10258	-0.00104063	0.0349098
10297	-0.00100249	0.0338856
10336	-0.000983412	0.0335735
10375	-0.00092619	0.033497
10414	-0.00109786	0.0338874
10453	-0.00105971	0.0339037
10492	-0.00092619	0.0338554
10531	-0.00113601	0.033238
10570	-0.00092619	0.0331086
10609	-0.000964338	0.0331062
10648	-0.00105971	0.0325046
10687	-0.00105971	0.0325653
10726	-0.00115508	0.0324797
10765	-0.000945264	0.032465
10804	-2.00086	-185.075
10843	-2.00077	-47.2782
10882	-2.00104	-27.7419
10921	-2.00085	-20.1521
10960	-2.00085	-16.5372
10999	-2.00077	-14.5461
11038	-2.00098	-13.3271
11077	-2.00083	-12.4884
11116	-2.00083	-11.8843
11155	-2.00071	-11.3734
11194	-2.00098	-10.9701
11233	-2.00081	-10.6615
11272	-2.00088	-10.4294
11311	-2.00086	-10.2255
11350	-2.00075	-10.0608
11389	-2.00083	-9.95378
11428	-2.00067	-9.88685
11467	-2.00075	-9.83088
11506	-2.00085	-9.7736
11545	-2.00092	-9.75473
11584	-2.00092	-9.75405
11623	-2.00079	-9.77476
11662	-2.00083	-9.76773
11701	-0.00109786	213.486
11740	-0.000945264	6.38264
11779	-0.000983412	3.6026
11818	-0.00104063	2.83722
11857	-0.000888042	2.5279
11896	-0.00107878	2.36568
11935	-0.000868968	2.27712
11974	-0.000964338	2.16662
12013	-0.00107878	2.10679
12052	-0.000964338	2.04417
12091	-0.00107878	2.00064
12130	-0.000945264	1.9739
12169	-0.000983412	1.91157
12208	-0.00115508	1.88824
12247	-0.00117415	1.87136
12286	-0.00113601	1.84337
12325	-0.00111693	1.79213
12364	-0.00105971	1.74961
12403	-0.00104063	1.7238
12442	-0.000983412	1.69941
12481	-0.000907116	1.66207
12520	-0.00105971	1.61619
12559	-0.00109786	1.59479
12598	-0.00102156	1.56403
12637	-0.000983412	1.53554
12676	-0.00104063	1.48623
12715	-0.000888042	1.45233
12754	-0.00113601	1.42253
12793	-0.000983412	1.39499
12832	-0.000907116	1.35003
12871	-0.000983412	1.31182
12910	-0.00105971	1.27893
12949	-0.000983412	1.25244
12988	-0.00100249	1.21381
13027	-0.00105971	1.17213
13066	-0.000964338	1.13698
13105	-0.000983412	1.10468
13144	-0.00102156	1.06892
13183	-0.00117415	1.02486
13222	-0.000868968	0.987044
13261	-0.00107878	0.949902
13300	-0.00100249	0.918123
13339	-0.000983412	0.879462
13378	-0.00105971	0.846435
13417	-0.00104063	0.818096
13456	-0.00104063	0.794748
13495	-0.000888042	0.768191
13534	-0.00111693	0.741831
13573	-0.000945264	0.719209
13612	-0.000907116	0.699287
13651	-0.00102156	0.679673
13690	-0.00107878	0.654975
13729	-0.00109786	0.633801
13768	-0.00102156	0.613288
13807	-0.00104063	0.59639
13846	-0.00105971	0.574453
13885	-0.000964338	0.554846
13924	-0.00104063	0.537223
13963	-0.00102156	0.521913
14002	-0.00105971	0.50459
14041	-0.000983412	0.486904
14080	-0.000964338	0.470027
14119	-0.00102156	0.456359
14158	-0.00104063	0.443331
14197	-0.000868968	0.428015
14236	-0.00107878	0.415224
14275	-0.00100249	0.403489
14314	-0.00111693	0.39323
14353	-0.00107878	0.380244
14392	-0.00102156	0.369356
14431	1.49925	37.7352
14470	1.49919	26.8697
14509	1.49929	22.1608
14548	1.49925	19.253
14587	1.49923	17.3044
14626	1.49935	15.9095
14665	1.4994	14.7671
14704	1.49942	13.8417
14743	1.49948	13.1256
14782	1.49937	12.4559
14821	1.49923	11.9201
14860	1.49929	11.4082
14899	1.49935	10.9629
14938	1.49939	10.5339
14977	1.49927	10.1963
15016	1.49937	9.84689
15055	1.49935	9.52952
15094	1.49923	9.233
15133	1.49931	8.96777
15172	1.49933	8.73135
15211	1.49923	8.48238
15250	1.49929	8.25678
15289	1.4994	8.05666
15328	1.49929	7.88456
15367	1.49925	7.6957
15406	1.49919	7.51926
15445	1.49919	7.35404
15484	1.49935	7.21163
15523	1.4994	7.05574
15562	1.49925	6.90547
15601	1.49927	6.7718
15640	1.49927	6.64353
15679	1.49933	6.51727
15718	1.4995	6.38809
15757	1.49925	6.27213
15796	1.49937	6.16031
15835	1.49919	6.05178
15874	1.49931	5.94217
15913	1.49921	5.8426
15952	1.49946	5.73902
15991	1.49919	5.64363
16030	1.49931	5.54716
16069	1.49931	5.45438
16108	1.49937	5.3639
16147	1.49931	5.27851
16186	1.49935	5.1909
16225	-0.00105971	-2.47612
16264	-0.00102156	-0.577771
16303	-0.00111693	-0.0214673
16342	-0.00102156	0.232352
16381	-0.00111693	0.311093
16420	-0.00113601	0.316746
16459	-0.00111693	0.291725
16498	-0.000888042	0.269607
16537	-0.00102156	0.238048
16576	-0.00102156	0.210654
16615	-0.00104063	0.18853
16654	-0.00111693	0.175521
16693	-0.00105971	0.163481
16732	-0.000888042	0.149624
16771	-0.000868968	0.140071
16810	-0.00113601	0.132228
16849	-0.000983412	0.129785
16888	-0.00102156	0.120547
16927	-0.00100249	0.114747
16966	-0.000888042	0.109786
17005	-0.00104063	0.109758
17044	-0.00092619	0.104254
17083	-0.000907116	0.100463
17122	-0.00102156	0.0967258
17161	-0.000792671	0.0953189
17200	-0.000945264	0.0933762
17239	-0.00102156	0.0891668
17278	-0.00115508	0.0862186
17317	-0.00092619	0.0863157
17356	-0.00113601	0.0864384
17395	-0.000868968	0.0816389
17434	-0.000983412	0.079687
17473	-0.00102156	0.0782433
17512	-0.00105971	0.0808903
17551	-0.000849894	0.0772026
17590	-0.000945264	0.0742102
17629	-0.000964338	0.0728139
17668	-0.00092619	0.0745548
17707	-0.00105971	0.0739791
17746	-0.0012123	0.0699801
17785	-0.00102156	0.068405
17824	-0.00109786	0.0684382
17863	-0.00105971	0.0697461
17902	-0.00102156	0.0667362
17941	-0.00100249	0.065896
17980	-0.000811746	0.0649474
18019	-0.000945264	0.0665982
18058	-0.00107878	0.0653706
18097	-0.00092619	0.063524
18136	-0.00092619	0.0616232
18175	-0.00109786	0.0642926
18214	-0.000983412	0.0622914
18253	-0.00113601	0.0597114
18292	-0.000983412	0.0590198
18331	-0.000888042	0.0597834
18370	-0.00105971	0.0604529
18409	-0.000945264	0.0588394
18448	-0.00109786	0.0581297
18487	-0.00109786	0.0567946
18526	-0.00111693	0.058664
18565	-0.00107878	0.0556836
18604	-0.00102156	0.0550948
18643	-0.00107878	0.0538294
18682	-0.00102156	0.0556945
18721	-0.00104063	0.055146
18760	-0.000964338	0.0531488
18799	-0.00102156	0.0535085
18838	-0.00092619	0.0532967
18877	-0.00102156	0.0539442
18916	-0.000945264	0.0524659
18955	-0.00105971	0.0511928
18994	-0.000888042	0.0496232
19033	-0.00104063	0.0519393
19072	-0.00100249	0.0495287
19111	-0.0012123	0.0504006
19150	-0.000849894	0.0490104
19189	-0.000888042	0.0507144
19228	-0.000964338	0.0493104
19267	-0.000888042	0.047674
19306	-0.00107878	0.0474917
19345	-0.000945264	0.0467777
19384	-0.00102156	0.0487307
19423	-0.00105971	0.0470593
19462	-0.000983412	0.0457864
19501	-0.0012123	0.0461495
19540	-0.00100249	0.0476632
19579	-0.00102156	0.0458657
19618	-0.000964338	0.0453261
19657	-0.000964338	0.045364
19696	-0.00100249	0.0458453
19735	-0.000945264	0.0455162
19774	-0.000983412	0.0429547
19813	-0.00092619	0.043743
19852	-0.00102156	0.0433393
19891	-0.00117415	0.0438124
19930	-0.000945264	0.0430946
19969	-0.000888042	0.041927
20008	-0.00102156	0.0438925
20047	-0.00102156	0.043105
20086	-0.000945264	0.0407628
20125	-0.00100249	0.0415715
20164	-0.000964338	0.0417581
20203	-0.00102156	0.0417821
20242	-0.00092619	0.0405052
20281	-0.00105971	0.0409155
20320	-0.000983412	0.0393974
20359	-0.00092619	0.0405706
20398	-0.00119323	0.0404936
20437	-0.00100249	0.0395017
20476	-0.00100249	0.0393901
20515	-0.00109786	0.0389327
20554	-0.00111693	0.0405583
20593	-0.00102156	0.0396093
20632	-0.00100249	0.0381332
20671	-0.00100249	0.03797
20710	-0.00105971	0.0395404
20749	-0.00104063	0.0386202
20788	-0.00107878	0.037367
20827	-0.00102156	0.0373662
20866	-0.000849894	0.038312
20905	-0.00092619	0.0377244
20944	-0.000983412	0.0371247
20983	-0.00104063	0.0375573
21022	-0.00104063	0.0365208
21061	-0.00107878	0.0375602
21100	-0.000849894	0.0372413
21139	-0.000868968	0.0353233
21178	-0.00113601	0.0359904
21217	-0.00083082	0.0375945
21256	-0.00100249	0.0358557
21295	-0.00104063	0.0352971
21334	-0.000945264	0.0354866
21373	-0.000964338	0.0365665
21412	-0.00104063	0.0359615
21451	-0.000964338	0.0350884
21490	-0.00105971	0.0349407
21529	-0.00113601	0.0354685
21568	-0.00109786	0.035543
21607	-0.00113601	0.0348091
21646	-0.00104063	0.0344759
21685	-0.00111693	0.0337116
21724	-0.000907116	0.0351543
21763	-0.00100249	0.0346623
21802	-0.00107878	0.0339934
21841	-0.00092619	0.0335092
21880	-0.00100249	0.0344358
21919	-0.00105971	0.0336224
21958	-0.00113601	0.0333604
21997	-0.000945264	0.0332249
22036	-0.00104063	0.0330894
22075	-0.00104063	0.0341156
22114	-0.00100249	0.0334562
22153	-0.000945264	0.0325658
22192	-0.00104063	0.0333346
22231	-0.00092619	0.0340144
22270	-0.00104063	0.0326518
22309	-0.00117415	0.0320654
22348	-0.00092619	0.0324468
22387	-0.00102156	0.0323489
22426	-0.000907116	0.0322421
22465	-0.00104063	0.0313258
22504	-0.00115508	0.0322081
22543	-0.00105971	0.0317898
22582	-0.000907116	0.0326583
22621	-0.00107878	0.0313844
22660	-0.00102156	0.031972
22699	-0.00102156	0.0312184
22738	-0.00083082	0.0324511
22777	-0.00100249	0.0319838
22816	-0.000945264	0.0310605
22855	-0.000811746	0.0311596
22894	-0.000964338	0.0323467
22933	-0.00100249	0.032294
22972	-0.00109786	0.031558
23011	-0.00102156	0.031663
23050	-0.000907116	0.0320847
23089	-0.000907116	0.0323747
23128	-0.00107878	0.0319164
23167	-0.00100249	0.0310426
23206	-0.00119323	0.0307663
23245	-0.000945264	0.0320203
23284	-0.00102156	0.0311462
23323	-0.000964338	0.0300744
23362	-0.00107878	0.0306504
23401	-0.00104063	0.0308962
23440	-0.00109786	0.0310956
23479	-0.00100249	0.0304984
23518	-0.00104063	0.0295662
23557	-0.00113601	0.0298423
23596	-0.00100249	0.0304155
23635	-0.000964338	0.029735
23674	-0.000945264	0.0295084
23713	-0.00105971	0.0294962
23752	-0.000983412	0.0307397
23791	-0.00113601	0.0297455
23830	-0.00104063	0.0285238
23869	-0.00100249	0.0285954
23908	-0.000983412	0.0299509
23947	-0.00102156	0.0298875
23986	-0.00092619	0.0293195
24025	-0.00105971	0.0280131
24064	-0.00102156	0.0289121
24103	-0.00102156	0.029428
24142	-0.00100249	0.0286653
24181	-0.000888042	0.0285845
24220	-0.00107878	0.0278754
24259	-0.000964338	0.0291473
24298	-0.00100249	0.0282624
24337	-0.00105971	0.027832
24376	-0.000983412	0.0281054
24415	-0.000983412	0.0282093
24454	-0.000945264	0.0276982
24493	-0.00109786	0.0277792
24532	-0.00104063	0.0276342
24571	-0.00092619	0.0279905
24610	-0.00105971	0.0278771
24649	-0.000964338	0.0271488
24688	-0.00105971	0.0266688
24727	-0.00104063	0.0276691
24766	-0.00109786	0.0280326
24805	-0.00104063	0.0270156
24844	-0.00115508	0.0267739
24883	-0.00104063	0.0268909
24922	-0.00092619	0.0277053
24961	-0.00107878	0.0270257
25000	-0.000964338	0.0273135
25039	-0.000811746	0.0267794
25078	-0.000811746	0.0267566
25117	-0.00100249	0.0270459
25156	-0.00105971	0.0263976
25195	-0.00107878	0.0269227
25234	-2.00085	-56.4848
25273	-2.00075	-34.2694
25312	-2.00088	-23.763
25351	-2.00069	-17.7054
25390	-2.00081	-13.9195
25429	-2.00081	-11.4758
25468	-2.00077	-9.77754
25507	-2.00086	-8.55042
25546	-2.00069	-7.64292
25585	-2.0009	-6.95477
25624	-2.00088	-6.41331
25663	-2.00085	-5.95663
25702	-2.00081	-5.59246
25741	-2.00077	-5.28948
25780	-2.00088	-5.04812
25819	-2.0009	-4.83597
25858	-2.0009	-4.64505
25897	-2.00073	-4.48133
25936	-2.00069	-4.35516
25975	-2.00073	-4.23129
26014	-2.00083	-4.11501
26053	-2.00073	-4.01925
26092	-2.00077	-3.93951
26131	-0.00100249	5.96181
26170	-0.000964338	2.58794
26209	-0.00111693	1.80614
26248	-0.0012123	1.47011
26287	-0.00105971	1.30228
26326	-0.000964338	1.16617
26365	-0.00111693	1.08133
26404	-0.00100249	1.01583
26443	-0.00092619	0.973044
26482	-0.000983412	0.92105
26521	-0.00102156	0.880443
26560	-0.000907116	0.848831
26599	-0.00102156	0.830306
26638	-0.00105971	0.810686
26677	-0.000868968	0.782859
26716	-0.000945264	0.767503
26755	-0.00104063	0.753717
26794	-0.00100249	0.749174
26833	-0.00111693	0.729131
26872	-0.00113601	0.714018
26911	-0.000964338	0.703532
26950	-0.000964338	0.700994
26989	-0.00117415	0.68669
27028	-0.00092619	0.671949
27067	-0.000983412	0.664272
27106	-0.00102156	0.658718
27145	-0.00102156	0.6533
27184	-0.00104063	0.636902
27223	-0.00102156	0.628891
27262	-0.00092619	0.620715
27301	-0.00092619	0.619282
27340	-0.00100249	0.604121
27379	-0.00102156	0.594095
27418	-0.000868968	0.58616
27457	-0.000907116	0.585542
27496	-0.00100249	0.575825
27535	-0.000983412	0.563864
27574	-0.00102156	0.55718
27613	-0.00109786	0.555259
27652	-0.00104063	0.547682
27691	-0.000945264	0.536744
27730	-0.000849894	0.528913
27769	-0.00102156	0.52365
27808	-0.00100249	0.522644
27847	-0.000964338	0.509368
27886	-0.00092619	0.503145
27925	-0.000945264	0.497178
27964	-0.000983412	0.497205
28003	-0.00105971	0.487451
28042	-0.000983412	0.476295
28081	-0.00111693	0.470364
28120	-0.00100249	0.468317
28159	-0.000983412	0.463465
28198	-0.00104063	0.454233
28237	-0.000945264	0.448142
28276	-0.000983412	0.444102
28315	-0.00100249	0.44278
28354	-0.00104063	0.432466
28393	-0.00111693	0.427028
28432	-0.00104063	0.42061
28471	-0.00104063	0.421177
28510	-0.00109786	0.412557
28549	-0.000849894	0.405495
28588	-0.00104063	0.400217
28627	-0.00104063	0.398504
28666	-0.00104063	0.393862
28705	-0.000983412	0.38549
28744	-0.00107878	0.381224
28783	-0.00107878	0.376548
28822	1.49935	33.4161
28861	1.49935	17.3019
28900	1.49939	13.0536
28939	1.49937	10.9444
28978	1.4994	9.80981
29017	1.49925	8.98904
29056	1.49927	8.42932
29095	1.49929	7.97574
29134	1.49931	7.65681
29173	1.49914	7.43512
29212	1.49942	7.20184
29251	1.49937	7.00029
29290	1.4994	6.82465
29329	1.49925	6.66112
29368	1.49946	6.51507
29407	1.49933	6.3775
29446	1.49929	6.25648
29485	1.49935	6.14316
29524	1.49933	6.03499
29563	1.49921	5.92617
29602	1.49942	5.83645
29641	1.49944	5.75108
29680	1.49927	5.6574
29719	1.49916	5.57736
29758	1.49919	5.50426
29797	1.49921	5.42893
29836	1.49921	5.35279
29875	1.4994	5.28691
29914	1.49919	5.21499
29953	1.49944	5.14401
29992	1.49937	5.07529
30031	1.49931	5.01608
30070	1.49919	4.95072
30109	1.49931	4.88521
30148	1.49916	4.79561
30187	1.4994	4.73444
30226	1.49942	4.68059
30265	1.49931	4.62016
30304	1.4994	4.55273
30343	1.49935	4.48637
30382	1.49925	4.43099
30421	1.49923	4.3698
30460	1.49921	4.30794
30499	1.49935	4.24085
30538	1.49931	4.18108
30577	1.49937	4.11649
30616	-0.000964338	-3.88987
30655	-0.00109786	-0.771903
30694	-0.000945264	-0.124216
30733	-0.000907116	0.128753
30772	-0.00104063	0.213281
30811	-0.00104063	0.22918
30850	-0.00102156	0.227646
30889	-0.00113601	0.20571
30928	-0.00104063	0.188707
30967	-0.00105971	0.174119
31006	-0.00100249	0.16657
31045	-0.000849894	0.152883
31084	-0.000945264	0.142792
31123	-0.00102156	0.134518
31162	-0.00111693	0.131411
31201	-0.00105971	0.123871
31240	-0.00100249	0.117137
31279	-0.00107878	0.112166
31318	-0.000907116	0.109498
31357	-0.00107878	0.10668
31396	-0.000907116	0.101146
31435	-0.00107878	0.0984981
31474	-0.00113601	0.0959761
31513	-0.00104063	0.0952781
31552	-0.000964338	0.0913193
31591	-0.00100249	0.0886544
31630	-0.0012123	0.0867492
31669	-0.00104063	0.0883388
31708	-0.00092619	0.0856057
31747	-0.00100249	0.0830697
31786	-0.000945264	0.0812442
31825	-0.000868968	0.0806428
31864	-0.000983412	0.0793663
31903	-0.00092619	0.0768454
31942	-0.000983412	0.0760528
31981	-0.00104063	0.0761193
32020	-0.000945264	0.0770655
32059	-0.000983412	0.0735998
32098	-0.000811746	0.0720174
32137	-0.000983412	0.0708778
32176	-0.00100249	0.0719923
32215	-0.000964338	0.0693268
32254	-0.000773597	0.0689363
32293	-0.000849894	0.0687531
32332	-0.00113601	0.0683046
32371	-0.00113601	0.0675494
32410	-0.00104063	0.0652421
32449	-0.00105971	0.0648493
32488	-0.00102156	0.0648537
32527	-0.00105971	0.0655064
32566	-0.00104063	0.0635196
32605	-0.000964338	0.0623416
32644	-0.00092619	0.0612818
32683	-0.00102156	0.0626895
32722	-0.00109786	0.0612708
32761	-0.000983412	0.0607459
32800	-0.00113601	0.0598858
32839	-0.00113601	0.060244
32878	-0.00092619	0.0591275
32917	-0.000983412	0.0581468
32956	-0.00100249	0.0573674
32995	-0.00109786	0.0575031
33034	-0.000983412	0.0585052
33073	-0.00109786	0.0567322
33112	-0.00105971	0.0560798
33151	-0.00111693	0.0555777
33190	-0.000888042	0.0567751
33229	-0.00111693	0.0558222
33268	-0.000964338	0.0546865
33307	-0.00111693	0.054032
33346	-0.00115508	0.0549797
33385	-0.00111693	0.0540644
33424	-0.00104063	0.0531178
33463	-0.00115508	0.052755
33502	-0.000868968	0.0522522
33541	-0.00100249	0.0527947
33580	-0.00107878	0.0516749
33619	-0.00113601	0.0516997
33658	-0.000964338	0.0509968
33697	-0.00104063	0.0517461
33736	-0.000945264	0.0499559
33775	-0.000888042	0.0498421
33814	-0.000888042	0.049494
33853	-0.000983412	0.0502781
33892	-0.000983412	0.0496569
33931	-0.00107878	0.0490816
33970	-0.000888042	0.0479343
34009	-0.00123138	0.0484701
34048	-0.00102156	0.0483149
34087	-0.00113601	0.0472826
34126	-0.00109786	0.0476136
34165	-0.000888042	0.0470705
34204	-0.00104063	0.0481044
34243	-0.00102156	0.0468255
34282	-0.00092619	0.0462236
34321	-0.000983412	0.0459462
34360	-0.000811746	0.0465884
34399	-0.00102156	0.0454006
34438	-0.00111693	0.0446996
34477	-0.00105971	0.0448144
34516	-0.000868968	0.0444027
34555	-0.00113601	0.0448844
34594	-0.00105971	0.0436988
34633	-0.00102156	0.0436266
34672	-0.00104063	0.0437766
34711	-0.000983412	0.0445741
34750	-0.000964338	0.0432555
34789	-0.00102156	0.043096
34828	-0.000888042	0.042516
34867	-0.00102156	0.0436623
34906	-0.00092619	0.0429462
34945	-0.00105971	0.0422582
34984	-0.00107878	0.0417425
35023	-0.000964338	0.0421208
35062	-0.00104063	0.0427385
35101	-0.000868968	0.0416687
35140	-0.000868968	0.0413271
35179	-0.00109786	0.0413577
35218	-0.00111693	0.0417791
35257	-0.00105971	0.0406528
35296	-0.00105971	0.0400782
35335	-0.00104063	0.0405096
35374	-0.000868968	0.040658
35413	-0.000945264	0.0403389
35452	-0.00113601	0.0394262
35491	-0.000983412	0.0391633
35530	-0.00100249	0.039965
35569	-0.000849894	0.0395734
35608	-0.00102156	0.0386816
35647	-0.00111693	0.0389195
35686	-0.00107878	0.0386327
35725	-0.00102156	0.0392093
35764	-0.00100249	0.0382575
35803	-0.000945264	0.037907
35842	-0.00102156	0.0378682
35881	-0.000983412	0.0386136
35920	-0.000888042	0.0380226
35959	-0.00113601	0.0375615
35998	-0.00111693	0.0370692
36037	-0.000983412	0.0379855
36076	-0.00104063	0.0375321
36115	-0.00105971	0.0368988
36154	-0.000811746	0.0368211
36193	-0.00126952	0.0364623
36232	-0.000983412	0.0367929
36271	-0.00102156	0.0359338
36310	-0.000945264	0.0363602
36349	-0.00105971	0.036243
36388	-0.00117415	0.036728
36427	-0.00105971	0.0354438
36466	-0.00102156	0.0352237
36505	-0.00119323	0.0352209
36544	-0.000983412	0.0353601
36583	-0.00092619	0.0352472
36622	-0.000945264	0.0340191
36661	-0.000983412	0.0344209
36700	-0.00107878	0.0341265
36739	-0.00102156	0.0350518
36778	-0.000945264	0.034524
36817	-0.000907116	0.0341642
36856	-0.00109786	0.0338715
36895	-0.00100249	0.0349095
36934	-0.000868968	0.0337008
36973	-0.000868968	0.0338186
37012	-0.000868968	0.033377
37051	-0.00083082	0.03359
37090	-0.00109786	0.0332654
37129	-0.00102156	0.0329511
37168	-0.00104063	0.0331708
37207	-0.00111693	0.0329329
37246	-0.000983412	0.0334004
37285	-0.00100249	0.032078
37324	-0.000945264	0.0322583
37363	-0.00115508	0.0321798
37402	-0.00119323	0.0325041
37441	-0.00107878	0.0318212
37480	-0.00102156	0.0313288
37519	-0.00107878	0.0313183
37558	-0.00111693	0.0320746
37597	-0.00102156	0.032074
37636	-0.00119323	0.0313464
37675	-0.00107878	0.0313706
37714	-0.00104063	0.0307675
37753	-0.00092619	0.0311593
37792	-0.00105971	0.0303019
37831	-0.00113601	0.0306497
37870	-0.00105971	0.0307946
37909	-0.00107878	0.0313365
37948	-0.000964338	0.0303432
37987	-0.00113601	0.0305688
38026	-0.00092619	0.0304648
38065	-0.00105971	0.0305137
38104	-0.000945264	0.030122
38143	-0.00111693	0.0294191
38182	-0.00104063	0.0293286
38221	-0.00104063	0.0297185
38260	-0.00107878	0.0298634
38299	-0.00102156	0.0293118
38338	-0.00109786	0.029311
38377	-0.000945264	0.0296171
38416	-0.00092619	0.030131
38455	-0.000868968	0.0289091
38494	-0.00113601	0.0291327
38533	-0.000983412	0.0291106
38572	-0.000983412	0.0295468
38611	-0.00102156	0.0291723
38650	-0.000888042	0.0288094
38689	-0.00102156	0.0288319
38728	-0.00105971	0.0290873
38767	-0.00102156	0.02876
38806	-0.000964338	0.0282255
38845	-0.00104063	0.028199
38884	-0.00104063	0.0283884
38923	-0.000964338	0.0290744
38962	-0.00102156	0.0284332
39001	-0.00092619	0.0283956
39040	-0.00092619	0.0277522
39079	-0.000983412	0.0282758
39118	-0.000849894	0.0281374
39157	-0.00107878	0.027553
39196	-0.0012123	0.0273294
39235	-0.00105971	0.0278972
39274	-0.00100249	0.0281023
39313	-0.000849894	0.0275312
39352	-0.000907116	0.0275089
39391	-0.00105971	0.027043
39430	-0.000983412	0.0276298
39469	-0.00105971	0.0267385
39508	-0.00104063	0.027055
39547	-0.00100249	0.0272071
39586	-0.000964338	0.0276484
39625	-2.00079	-48.2066
39664	-2.00086	-25.4584
39703	-2.00092	-17.5568
39742	-2.00083	-13.5596
39781	-2.00081	-11.1559
39820	-2.00081	-9.45247
39859	-2.00092	-8.20866
39898	-2.001	-7.27433
39937	-2.00094	-6.56884
39976	-2.00083	-5.98861
40015	-2.00081	-5.52748
40054	-2.00086	-5.15373
40093	-2.00086	-4.85004
40132	-2.00077	-4.60372
40171	-2.00075	-4.39962
40210	-2.001	-4.1953
40249	-2.00075	-4.02435
40288	-2.00081	-3.88542
40327	-2.00083	-3.74715
40366	-2.00079	-3.62796
40405	-2.00088	-3.52491
40444	-2.00079	-3.44325
40483	-2.00083	-3.35373
40522	-0.000945264	8.47864
40561	-0.00105971	2.67321
40600	-0.00115508	1.63204
40639	-0.00100249	1.23769
40678	-0.00107878	1.02413
40717	-0.000907116	0.898459
40756	-0.000964338	0.812557
40795	-0.00107878	0.74997
40834	-0.00107878	0.688196
40873	-0.000907116	0.642752
40912	-0.00100249	0.605606
40951	-0.00111693	0.580915
40990	-0.000964338	0.548576
41029	-0.00104063	0.524675
41068	-0.00102156	0.505722
41107	-0.00104063	0.494571
41146	-0.00102156	0.478376
41185	-0.00107878	0.464141
41224	-0.00104063	0.454676
41263	-0.00105971	0.448064
41302	-0.00104063	0.444069
41341	-0.00105971	0.433481
41380	-0.000888042	0.427749
41419	-0.000983412	0.4223
41458	-0.00100249	0.421446
41497	-0.000945264	0.411928
41536	-0.00102156	0.40614
41575	-0.00104063	0.401842
41614	-0.00100249	0.401203
41653	-0.00092619	0.395382
41692	-0.00102156	0.387819
41731	-0.00105971	0.383891
41770	-0.000945264	0.382441
41809	-0.00105971	0.381008
41848	-0.00104063	0.373169
41887	-0.00102156	0.368309
41926	-0.00102156	0.364932
41965	-0.00104063	0.365801
42004	-0.00105971	0.358363
42043	-0.00105971	0.353524
42082	-0.000888042	0.350826
42121	-0.000888042	0.351213
42160	-0.000868968	0.346814
42199	-0.00104063	0.341572
42238	-0.000945264	0.33798
42277	-0.00113601	0.336715
42316	-0.000983412	0.335153
42355	-0.00111693	0.328652
42394	-0.000983412	0.325146
42433	-0.00104063	0.322414
42472	-0.000983412	0.322102
42511	-0.00105971	0.315389
42550	-0.00111693	0.311975
42589	-0.00109786	0.309129
42628	-0.000964338	0.309738
42667	-0.00105971	0.305561
42706	-0.000964338	0.301453
42745	-0.000945264	0.298444
42784	-0.00105971	0.297259
42823	-0.00092619	0.295199
42862	-0.000983412	0.290112
42901	-0.00123138	0.287367
42940	-0.000983412	0.284809
42979	-0.00107878	0.285047
43018	-0.00105971	0.279658
43057	-0.00092619	0.275839
43096	-0.00100249	0.272995
43135	-0.000983412	0.273564
43174	-0.00104063	0.269253
43213	1.49929	37.5474
43252	1.49927	15.5174
43291	1.49935	11.0636
43330	1.49929	9.00594
43369	1.49942	7.89386
43408	1.49929	7.1801
43447	1.49933	6.69157
43486	1.4994	6.32986
43525	1.49929	6.05601
43564	1.49929	5.82689
43603	1.49925	5.63941
43642	1.49919	5.49103
43681	1.49923	5.35203
43720	1.49935	5.24242
43759	1.49916	5.12058
43798	1.4994	5.02014
43837	1.49927	4.92673
43876	1.49935	4.85191
43915	1.49923	4.75616
43954	1.49933	4.67865
43993	1.49948	4.59488
44032	1.49923	4.53223
44071	1.49916	4.46684
44110	1.49939	4.39914
44149	1.49944	4.32428
44188	1.49931	4.26105
44227	1.49933	4.20364
44266	1.49927	4.14473
44305	1.49925	4.07456
44344	1.49935	4.00607
44383	1.4991	3.9446
44422	1.49918	3.87833
44461	1.49919	3.81212
44500	1.49929	3.73352
44539	1.49931	3.67649
44578	1.49923	3.60568
44617	1.49942	3.53499
44656	1.49927	3.45783
44695	1.49948	3.39211
44734	1.49918	3.32512
44773	1.49931	3.2559
44812	1.49939	3.17421
44851	1.49921	3.09705
44890	1.49929	3.0388
44929	1.49931	2.97864
44968	1.49927	2.91481
45007	-0.000983412	-7.54797
45046	-0.000964338	-0.937122
45085	-0.00107878	-0.147708
45124	-0.00105971	0.0524634
45163	-0.00117415	0.104263
45202	-0.00107878	0.110726
45241	-0.000907116	0.108616
45280	-0.000983412	0.104667
45319	-0.00092619	0.102207
45358	-0.00107878	0.0963975
45397	-0.00107878	0.090718
45436	-0.000907116	0.0870063
45475	-0.00100249	0.0838675
45514	-0.000907116	0.0814237
45553	-0.00109786	0.0772429
45592	-0.000945264	0.0744429
45631	-0.000964338	0.0724104
45670	-0.00107878	0.0720124
45709	-0.00117415	0.0684884
45748	-0.00111693	0.0668703
45787	-0.00107878	0.0651433
45826	-0.00109786	0.0651699
45865	-0.000964338	0.0634101
45904	-0.00102156	0.0617592
45943	-0.00111693	0.0604424
45982	-0.00102156	0.0595899
46021	-0.000983412	0.0592032
46060	-0.00092619	0.0574471
46099	-0.00113601	0.0565906
46138	-0.00107878	0.0559696
46177	-0.000945264	0.0563733
46216	-0.00092619	0.0545617
46255	-0.00092619	0.0535791
46294	-0.00104063	0.0528944
46333	-0.00100249	0.0534866
46372	-0.00107878	0.0522238
46411	-0.000964338	0.0510463
46450	-0.000964338	0.0503055
46489	-0.00105971	0.0503596
46528	-0.00105971	0.0502001
46567	-0.00107878	0.0490107
46606	-0.00115508	0.048362
46645	-0.00109786	0.0480274
46684	-0.000945264	0.0484861
46723	-0.00100249	0.0471918
46762	-0.00102156	0.0466423
46801	-0.000983412	0.046069
46840	-0.00111693	0.0466147
46879	-0.00113601	0.0455114
46918	-0.00105971	0.0452185
46957	-0.00111693	0.0447488
46996	-0.00104063	0.0450919
47035	-0.000964338	0.044742
47074	-0.00102156	0.043561
47113	-0.000964338	0.0431636
47152	-0.00100249	0.0432052
47191	-0.00105971	0.0436357
47230	-0.00111693	0.0426945
47269	-0.000945264	0.0425442
47308	-0.0012123	0.0423637
47347	-0.000983412	0.0428908
47386	-0.00100249	0.0418723
47425	-0.00100249	0.0414355
47464	-0.00104063	0.0409332
47503	-0.00092619	0.0414642
47542	-0.00109786	0.041062
47581	-0.000849894	0.0402786
47620	-0.00111693	0.0400227
47659	-0.00092619	0.0395479
47698	-0.00115508	0.0399093
47737	-0.000983412	0.038775
47776	-0.00100249	0.0383631
47815	-0.00102156	0.0384062
47854	-0.00105971	0.0392243
47893	-0.00102156	0.038271
47932	-0.00113601	0.0382297
47971	-0.00109786	0.0379335
48010	-0.00092619	0.0383252
48049	-0.00102156	0.0376543
48088	-0.000964338	0.037136
48127	-0.00107878	0.0369229
48166	-0.00107878	0.0368267
48205	-0.000983412	0.0369998
48244	-0.000983412	0.0362584
48283	-0.00102156	0.0362177
48322	-0.00117415	0.0363249
48361	-0.00102156	0.0367695
48400	-0.000964338	0.0358357
48439	-0.000945264	0.0356447
48478	-0.00119323	0.0354691
48517	-0.00113601	0.03604
48556	-0.00111693	0.0353629
48595	-0.000964338	0.0349264
48634	-0.00115508	0.034916
48673	-0.00107878	0.035231
48712	-0.00102156	0.0355345
48751	-0.00109786	0.0347713
48790	-0.000983412	0.0344694
48829	-0.00105971	0.0341914
48868	-0.000907116	0.0347548
48907	-0.00107878	0.0341132
48946	-0.00100249	0.0337276
48985	-0.00104063	0.0335437
49024	-0.00100249	0.0339715
49063	-0.00111693	0.0334555
49102	-0.000945264	0.0329099
49141	-0.00109786	0.0325432
49180	-0.00100249	0.0326739
49219	-0.00105971	0.0328588
49258	-0.00109786	0.0322391
49297	-0.000945264	0.0322838
49336	-0.000983412	0.0320112
49375	-0.00100249	0.0324295
49414	-0.000888042	0.0318873
49453	-0.000964338	0.0320756
49492	-0.00104063	0.0318585
49531	-0.000945264	0.0323682
49570	-0.00115508	0.0316085
49609	-0.00105971	0.0314078
49648	-0.00113601	0.0312107
49687	-0.000983412	0.0313286
49726	-0.00117415	0.0314682
49765	-0.00105971	0.0309057
49804	-0.000888042	0.0309461
49843	-0.00102156	0.0307645
49882	-0.00113601	0.0312779
49921	-0.00109786	0.0304515
49960	-0.00117415	0.0303694
49999	-0.00105971	0.0301225
50038	-0.00109786	0.0305552
50077	-0.00109786	0.0299508
50116	-0.00115508	0.0298859
50155	-0.00100249	0.0299049
50194	-0.000907116	0.0301686
50233	-0.00100249	0.0300414
50272	-0.000964338	0.0296185
50311	-0.00113601	0.0296768
50350	-0.00102156	0.0296807
50389	-0.00111693	0.0298946
50428	-0.00100249	0.0291433
50467	-0.000983412	0.0291475
50506	-0.00100249	0.0290579
50545	-0.00102156	0.0296009
50584	-0.00102156	0.0289337
50623	-0.00104063	0.0287302
50662	-0.000964338	0.0287138
50701	-0.00100249	0.0290265
50740	-0.00109786	0.0288572
50779	-0.00102156	0.0282303
50818	-0.00109786	0.0283108
50857	-0.00104063	0.0283534
50896	-0.00104063	0.028858
50935	-0.00109786	0.0279253
50974	-0.000907116	0.0279905
51013	-0.00102156	0.0278337
51052	-0.00107878	0.0283793
51091	-0.00117415	0.0278374
51130	-0.00105971	0.0276251
51169	-0.00104063	0.0276452
51208	-0.000888042	0.0277407
51247	-0.000945264	0.0274785
51286	-0.000964338	0.0271569
51325	-0.00117415	0.0271829
51364	-0.00119323	0.0271654
51403	-0.00107878	0.0275039
51442	-0.000983412	0.02689
51481	-0.000868968	0.0266146
51520	-0.00115508	0.0266504
51559	-0.00113601	0.0272864
51598	-0.00100249	0.0264537
51637	-0.00113601	0.0264857
51676	-0.00105971	0.0266045
51715	-0.00102156	0.0266673
51754	-0.000983412	0.0262006
51793	-0.000983412	0.0258243
51832	-0.000964338	0.0258836
51871	-0.000945264	0.0258711
51910	-0.000945264	0.0263485
51949	-0.00100249	0.0257258
51988	-0.00104063	0.0255228
52027	-0.00107878	0.0256497
52066	-0.00107878	0.0260569
52105	-0.00107878	0.0254152
52144	-0.000945264	0.0253912
52183	-0.000945264	0.0253286
52222	-0.000983412	0.0256034
52261	-0.00105971	0.0253098
52300	-0.00113601	0.0252495
52339	-0.00107878	0.0252864
52378	-0.00107878	0.0251102
52417	-0.00100249	0.0253482
52456	-0.00109786	0.0246652
52495	-0.00109786	0.024897
52534	-0.00105971	0.0249728
52573	-0.000964338	0.0253032
52612	-0.000964338	0.0246528
52651	-0.00100249	0.024567
52690	-0.00100249	0.0245328
52729	-0.000945264	0.0249866
52768	-0.00113601	0.0246253
52807	-0.00105971	0.0245533
52846	-0.000983412	0.0243921
52885	-0.000983412	0.0244638
52924	-0.00109786	0.0244936
52963	-0.00109786	0.0240204
53002	-0.00104063	0.0240448
53041	-0.00123138	0.0241161
53080	-0.00102156	0.0245927
53119	-0.00119323	0.0240561
53158	-0.00105971	0.0239618
53197	-0.00105971	0.0239486
53236	-0.00102156	0.0242335
53275	-0.00104063	0.0237429
53314	-0.00102156	0.0235518
53353	-0.00113601	0.0235948
53392	-0.00105971	0.0238308
53431	-0.00109786	0.023938
53470	-0.00105971	0.0234607
53509	-0.00105971	0.0235249
53548	-0.00107878	0.0234707
53587	-0.00107878	0.0239766
53626	-0.00104063	0.0233797
53665	-0.00105971	0.0233008
53704	-0.00107878	0.023237
53743	-0.000964338	0.0235931
53782	-0.00107878	0.0233
53821	-0.00100249	0.0229606
53860	-0.00104063	0.0230569
53899	-0.00105971	0.0230524
53938	-0.00111693	0.0232453
53977	-0.00104063	0.0228278
54016	-2.00088	-50.5666
54055	-2.00088	-21.7639
54094	-2.00065	-14.52
54133	-2.00088	-11.1748
54172	-2.0009	-9.23432
54211	-2.00083	-7.91214
54250	-2.00096	-6.96366
54289	-2.00104	-6.23899
54328	-2.001	-5.66064
54367	-2.00085	-5.21056
54406	-2.00088	-4.85044
54445	-2.00094	-4.57929
54484	-2.00073	-4.31631
54523	-2.00088	-4.09862
54562	-2.00088	-3.91878
54601	-2.00094	-3.76987
54640	-2.00088	-3.62832
54679	-2.001	-3.50312
54718	-2.00086	-3.39489
54757	-2.00083	-3.29892
54796	-2.00081	-3.22216
54835	-2.00083	-3.13798
54874	-2.00096	-3.06512
54913	-0.00111693	13.9973
54952	-0.00115508	3.22843
54991	-0.00105971	1.65747
55030	-0.000964338	1.16056
55069	-0.00107878	0.928572
55108	-0.00102156	0.799472
55147	-0.00115508	0.701753
55186	-0.00105971	0.631511
55225	-0.00092619	0.579543
55264	-0.00104063	0.539292
55303	-0.00109786	0.504459
55342	-0.00102156	0.4696
55381	-0.00111693	0.444087
55420	-0.000983412	0.422068
55459	-0.00102156	0.404964
55498	-0.00107878	0.385197
55537	-0.00113601	0.370563
55576	-0.00105971	0.358051
55615	-0.000983412	0.351124
55654	-0.000964338	0.340858
55693	-0.00104063	0.332852
55732	-0.00113601	0.327141
55771	-0.000983412	0.324698
55810	-0.00107878	0.320244
55849	-0.00107878	0.314871
55888	-0.00102156	0.311537
55927	-0.000907116	0.308312
55966	-0.00107878	0.306611
56005	-0.00109786	0.300802
56044	-0.000983412	0.296866
56083	-0.000983412	0.293468
56122	-0.000964338	0.293175
56161	-0.00109786	0.288609
56200	-0.00105971	0.284621
56239	-0.00115508	0.281539
56278	-0.00109786	0.280967
56317	-0.00105971	0.277944
56356	-0.00092619	0.273656
56395	-0.00105971	0.270876
56434	-0.00104063	0.26842
56473	-0.000964338	0.267184
56512	-0.00104063	0.262344
56551	-0.00107878	0.259469
56590	-0.00107878	0.256641
56629	-0.000945264	0.255855
56668	-0.00105971	0.251537
56707	-0.000983412	0.248184
56746	-0.00113601	0.245445
56785	-0.00102156	0.244308
56824	-0.00113601	0.241076
56863	-0.00105971	0.23715
56902	-0.00111693	0.234638
56941	-0.00104063	0.232832
56980	-0.000945264	0.231593
57019	-0.00107878	0.227437
57058	-0.00100249	0.224802
57097	-0.00107878	0.222096
57136	-0.00104063	0.221253
57175	-0.00100249	0.217229
57214	-0.00100249	0.214049
57253	-0.00105971	0.211485
57292	-0.000964338	0.210353
57331	-0.00109786	0.207285
57370	-0.00104063	0.203937
57409	-0.00107878	0.201241
57448	-0.00100249	0.199302
57487	-0.00104063	0.197523
57526	-0.00109786	0.193867
57565	-0.00104063	0.191221
57600	-0.00102156	0.189861