File: Data_28_Experiment/CA_001_C01.txt
time/s	Ewe/V	<I>/mA
1	1.49909	93.6625
36	1.49916	28.6216
71	1.49916	26.317
106	1.49932	24.7141
141	1.49926	23.358
176	1.4993	22.1088
211	1.49932	21.0895
246	1.49928	20.0884
281	1.49941	19.2271
315.952	-0.00107222	-2.66362
350.952	-0.000900549	0.725686
385.952	-0.000900549	1.06032
420.952	-0.00103407	0.856864
455.952	-0.000957771	0.670481
490.952	-0.000862401	0.504237
525.952	-0.000976845	0.407636
560.952	-0.000881474	0.329131
595.952	-0.000938697	0.278686
630.952	-0.000881474	0.245837
665.952	-0.000976845	0.214506
700.952	-0.000995919	0.197022
735.952	-0.000881474	0.174793
770.952	-0.000843327	0.164735
805.952	-0.000900549	0.155464
840.952	-0.000843327	0.143286
875.952	-0.000862401	0.138223
910.952	-0.000900549	0.126517
945.952	-0.000957771	0.123537
980.952	-0.000995919	0.118757
1015.95	-0.000995919	0.113244
1050.95	-0.000995919	0.111976
1085.95	-0.000995919	0.104006
1120.95	-0.000843327	0.103867
1155.95	-0.00103407	0.100476
1190.95	-0.00076703	0.0978805
1225.95	-0.000824252	0.0974303
1260.95	-0.000862401	0.0920956
1295.95	-0.000957771	0.0930684
1330.95	-0.000900549	0.089605
1365.95	-0.000862401	0.0885507
1400.95	-0.00109129	0.088442
1435.95	-0.000786104	0.0843778
1470.95	-0.000938697	0.0856309
1505.95	-0.00101499	0.0823285
1540.95	-0.000900549	0.0826258
1575.95	-0.00101499	0.0826781
1610.95	-0.000919623	0.0796304
1645.95	-0.000900549	0.0809875
1680.95	-0.000957771	0.0778886
1715.95	-0.000938697	0.0787209
1750.95	-0.00103407	0.0782775
1785.95	-0.000938697	0.0761371
1820.95	-0.000881474	0.0771475
1855.95	-0.000919623	0.0741386
1890.95	-0.000919623	0.0754019
1925.95	-0.000900549	0.0749232
1960.95	-0.000881474	0.0733863
1995.95	-0.000938697	0.0743845
2030.95	-0.000805178	0.0713637
2065.95	-0.000938697	0.0726865
2100.95	-0.000957771	0.0716897
2135.95	-0.000862401	0.0709171
2170.95	-0.000919623	0.0717606
2205.95	-0.000747956	0.0690444
2240.95	-0.000976845	0.0703227
2275.95	-0.000976845	0.0688673
2310.95	-0.000805178	0.0687087
2345.95	-0.00076703	0.0693223
2380.95	-0.000938697	0.0670607
2415.95	-0.000900549	0.0682341
2450.95	-0.000843327	0.0665421
2485.95	-0.000938697	0.0667964
2520.95	-0.000957771	0.0669738
2555.95	-0.000843327	0.0648984
2590.95	-0.000957771	0.0657938
2625.95	-0.00105314	0.0638027
2660.95	-0.000938697	0.0644909
2695.95	-0.000957771	0.0646086
2730.95	-0.000938697	0.0630047
2765.95	-0.000881474	0.0639341
2800.95	-0.000900549	0.06184
2835.95	-0.000957771	0.0627585
2870.95	-0.000919623	0.0624945
2905.95	-0.000938697	0.0614344
2940.95	-0.000824252	0.0620544
2975.95	-0.000786104	0.060075
3010.95	-0.000786104	0.0610473
3045.95	-0.000995919	0.060552
3080.95	-0.000862401	0.0597936
3115.95	-0.000938697	0.0603013
3150.95	-0.000862401	0.0583628
3185.95	-0.000919623	0.0593729
3220.95	-0.000805178	0.0583839
3255.95	-0.000786104	0.058285
3290.95	-0.000881474	0.0586565
3325.95	-0.000805178	0.0568153
3360.95	-0.000843327	0.057701
3395.95	-0.000843327	0.0563831
3430.95	-0.000900549	0.0567394
3465.95	-0.000843327	0.0571458
3500.95	-0.000805178	0.0556585
3535.95	-0.000900549	0.056452
3570.95	-0.00076703	0.0550433
3605.95	-0.000786104	0.0555262
3640.95	-0.00103407	0.0555778
3675.95	-0.000881474	0.0542265
3710.95	-0.000805178	0.0549242
3745.95	-0.000862401	0.0532969
3780.95	-0.000919623	0.0540043
3815.95	-0.000881474	0.0539364
3850.95	-0.000900549	0.0529557
3885.95	-0.000919623	0.0532981
3920.95	-0.000805178	0.0516823
3955.95	-0.000995919	0.0524111
3990.95	-0.000728882	0.0520342
4025.95	-0.000824252	0.0515199
4060.95	-0.000919623	0.0519965
4095.95	-0.000900549	0.0504484
4130.95	-0.000957771	0.0512145
4165.95	-0.000919623	0.050537
4200.95	-0.000900549	0.0503329
4235.95	-0.000843327	0.0507734
4270.95	-0.000805178	0.0493719
4305.95	-0.000900549	0.0500332
4340.95	-0.000900549	0.0491475
4375.95	-0.000881474	0.0493297
4410.95	-0.000938697	0.0496538
4445.95	-0.00103407	0.0483415
4480.95	-0.000824252	0.0490174
4515.95	-0.000938697	0.047836
4550.95	-0.000919623	0.0482536
4585.95	-0.00101499	0.0485027
4620.95	-0.000957771	0.0474807
4655.95	-0.000881474	0.0479108
4690.95	-0.000862401	0.0467248
4725.95	-0.000900549	0.0475435
4760.95	-0.000747956	0.0476291
4795.95	-0.000862401	0.046861
4830.95	-0.00109129	0.0473049
4865.95	-0.000824252	0.0459767
4900.95	-0.000900549	0.0466611
4935.95	-0.000938697	0.0464152
4970.95	-0.000862401	0.0458678
5005.95	-0.000919623	0.046316
5040.95	-0.000805178	0.0449908
5075.95	-0.000843327	0.0456002
5110.95	-0.000957771	0.0452205
5145.95	-0.000900549	0.0450231
5180.95	-0.000957771	0.0454848
5215.95	-0.000900549	0.0442994
5250.95	-0.000805178	0.0448995
5285.95	-0.000881474	0.0442592
5320.95	-0.000881474	0.0443263
5355.95	-0.000862401	0.044671
5390.95	-0.000881474	0.0435993
5425.95	-0.000786104	0.0441525
5460.95	-0.00103407	0.0431802
5495.95	-0.000900549	0.0434834
5530.95	-0.000881474	0.0438136
5565.95	-0.000843327	0.0429271
5600.95	-0.000995919	0.0432756
5635.95	-0.000919623	0.0424292
5670.95	-0.00103407	0.0428375
5705.95	-0.000995919	0.0430417
5740.95	-0.00103407	0.0423755
5775.95	-0.000786104	0.0427496
5810.95	-0.000957771	0.0417037
5845.95	-0.00076703	0.0422592
5880.95	-0.000881474	0.0420554
5915.95	-0.000919623	0.0416849
5950.95	-0.000843327	0.0420913
5985.95	-0.000862401	0.0410722
6020.95	-0.000881474	0.0416159
6055.95	-0.000881474	0.041259
6090.95	-0.00101499	0.0410675
6125.95	-0.000709807	0.0415243
6160.95	-0.000900549	0.040559
6195.95	-0.000881474	0.0410004
6230.95	-0.000862401	0.0404769
6265.95	-0.000786104	0.0404983
6300.95	-0.000843327	0.0409079
6335.95	-0.000900549	0.0400003
6370.95	-0.000900549	0.0406893
6405.95	-0.000805178	0.0398194
6440.95	-0.000995919	0.0400209
6475.95	-0.000862401	0.0405967
6510.95	-0.000881474	0.0397051
6545.95	-0.000900549	0.0399707
6580.95	-0.000843327	0.0391797
6615.95	-0.000938697	0.0395512
6650.95	-0.000900549	0.0398659
6685.95	-0.000976845	0.0391642
6720.95	-0.000938697	0.0395314
6755.95	-0.000824252	0.0400146
6790.95	-0.000976845	0.0402731
6825.95	-0.000976845	0.0401363
6860.95	-0.000843327	0.0396978
6895.95	-0.000747956	0.0400334
6930.95	-0.000843327	0.0390095
6965.95	-0.000900549	0.0394315
7000.95	-0.000938697	0.0391556
7035.95	-0.000862401	0.0389291
7070.95	-0.00103407	0.0392999
7105.95	-0.000786104	0.0383849
7140.95	-0.00076703	0.0387581
7175.95	-0.00107222	0.0382579
7210.95	-0.000919623	0.0383661
7245.95	-0.000976845	0.0386755
7280.95	-0.000805178	0.0378319
7315.95	-0.00076703	0.0381379
7350.95	-0.000919623	0.0374062
7385.95	-0.000938697	0.0376542
7420.95	-0.000843327	0.0380778
7455.95	-0.000957771	0.0373003
7490.95	-0.000976845	0.0376101
7525.95	-0.000786104	0.0368407
7560.95	-0.000881474	0.0372012
7595.95	-0.000938697	0.0376928
7630.95	-0.000862401	0.0370331
7665.95	-0.000900549	0.0374552
7700.95	-0.000805178	0.0366131
7735.95	-0.000843327	0.037061
7770.95	-0.00101499	0.0370401
7805.95	-0.000824252	0.0365859
7840.95	-0.000862401	0.0369815
7875.95	-0.00076703	0.0361089
7910.95	-0.000938697	0.0365132
7945.95	-0.000976845	0.0362438
7980.95	-0.000805178	0.0361505
8015.95	-0.000843327	0.0366192
8050.95	-0.000900549	0.0357623
8085.95	-0.00101499	0.0361144
8120.95	-0.000862401	0.0357418
8155.95	-0.000938697	0.0357783
8190.95	-0.000881474	0.0362401
8225.95	-0.00101499	0.0354418
8260.95	-0.000957771	0.0356697
8295.95	-0.000919623	0.0351613
8330.95	-0.000938697	0.0353535
8365.95	-0.000843327	0.0357264
8400.95	-0.000919623	0.0350242
8435.95	-0.000938697	0.0353409
8470.95	-0.000862401	0.0347232
8505.95	-0.000824252	0.0349414
8540.95	-0.000862401	0.0352481
8575.95	-0.000843327	0.034778
8610.95	-0.00076703	0.0351741
8645.95	-0.000824252	0.0345096
8680.95	-0.000862401	0.0348175
8715.95	-0.000900549	0.0348578
8750.95	-0.000938697	0.0345107
8785.95	-0.000843327	0.034902
8820.95	-0.000881474	0.0341583
8855.95	-0.000900549	0.0344913
8890.95	-0.00101499	0.0343375
8925.95	-0.000919623	0.0341766
8960.95	-0.000900549	0.0346396
8995.95	-0.000900549	0.0338308
9030.95	-0.000995919	0.0341614
9065.95	-0.000786104	0.0337435
9100.95	-0.000900549	0.0338702
9135.95	-0.000919623	0.0342893
9170.95	-0.000862401	0.0336149
9205.95	-0.000881474	0.0338636
9240.95	-0.000976845	0.0333191
9275.95	-0.000900549	0.0336418
9310.95	-2.00099	-114.275
9345.97	-2.00099	-37.5218
9380.97	-2.0008	-22.0757
9415.97	-2.00099	-15.5468
9450.97	-2.00091	-12.0328
9485.97	-2.00093	-9.89461
9520.97	-2.00078	-8.54606
9555.97	-2.00084	-7.65046
9590.97	-2.00089	-7.00086
9625.97	-2.00084	-6.54259
9660.97	-2.00084	-6.18487
9695.97	-2.00089	-5.89261
9730.97	-2.00091	-5.67491
9765.97	-2.00095	-5.47653
9800.97	-2.00099	-5.33541
9835.97	-2.00101	-5.20523
9870.97	-2.00097	-5.10752
9905.97	-2.00099	-5.04194
9940.97	-2.00082	-4.9589
9975.97	-2.00086	-4.90772
10011	-2.00105	-4.85655
10046	-2.00084	-4.84555
10081	-2.00086	-4.81696
10116	-2.00082	-4.78314
10151	-2.00078	-4.76755
10186	-2.00089	-4.74251
10221	-0.000935775	6.56492
10256	-0.000916701	3.08294
10291	-0.000840404	2.30262
10326	-0.000878553	2.02216
10361	-0.00105022	1.83799
10396	-0.000897627	1.70417
10431	-0.000840404	1.63067
10466	-0.000935775	1.52693
10501	-0.000859479	1.47838
10536	-0.000973923	1.40727
10571	-0.000954849	1.35872
10606	-0.000935775	1.32612
10641	-0.000973923	1.27552
10676	-0.000973923	1.25864
10711	-0.000973923	1.21052
10746	-0.000859479	1.18535
10781	-0.00082133	1.16228
10816	-0.00082133	1.13314
10851	-0.000897627	1.12688
10886	-0.000916701	1.08833
10921	-0.000859479	1.07204
10956	-0.000802256	1.04973
10991	-0.000935775	1.02866
11026	-0.000954849	1.02392
11061	-0.000973923	0.991065
11096	-0.000897627	0.979215
11131	-0.00105022	0.957008
11166	-0.000935775	0.940806
11201	-0.00105022	0.933453
11236	-0.000897627	0.906845
11271	-0.000859479	0.897784
11306	-0.000840404	0.874517
11341	-0.00101207	0.861336
11376	-0.000859479	0.851277
11411	-0.00101207	0.830411
11446	-0.000802256	0.824243
11481	-0.000878553	0.800975
11516	-0.000992997	0.789542
11551	-0.000859479	0.777136
11586	-0.000878553	0.761327
11621	-0.000992997	0.756577
11656	-0.000992997	0.734384
11691	-0.000935775	0.724782
11726	-0.000954849	0.710792
11761	-0.000859479	0.697986
11796	-0.000783182	0.693666
11831	-0.000954849	0.673112
11866	-0.000992997	0.664548
11901	-0.000935775	0.649809
11936	-0.000935775	0.639564
11971	-0.000783182	0.634384
12006	-0.000954849	0.616824
12041	-0.000878553	0.609607
12076	-0.000935775	0.594931
12111	-0.000878553	0.586009
12146	-0.000878553	0.57915
12181	-0.000973923	0.564624
12216	-0.00101207	0.558494
12251	-0.000973923	0.542914
12286	-0.000840404	0.534361
12321	-0.000840404	0.525284
12356	-0.000935775	0.51277
12391	-0.000897627	0.507133
12426	-0.00103115	0.491698
12461	-0.00101207	0.481398
12496	-0.000992997	0.471046
12531	-0.000897627	0.460707
12566	-0.000764108	0.455409
12601	-0.00101207	0.440715
12636	-0.000916701	0.432963
12671	-0.000764108	0.422051
12706	-0.000897627	0.413044
12741	-0.000840404	0.407402
12776	-0.000916701	0.393474
12811	-0.00103115	0.385995
12846	-0.00082133	0.374435
12881	-0.000973923	0.366312
12916	1.49941	53.0615
12951	1.4994	30.983
12986	1.49953	23.062
13021	1.49957	18.7632
13056	1.49953	16.0786
13091	1.49945	14.2667
13126	1.49943	12.9463
13161	1.49959	11.9411
13196	1.49947	11.1222
13231	-0.000992997	-1.13444
13266	-0.000973923	0.237512
13301	-0.000897627	0.626735
13336	-0.000916701	0.638811
13371	-0.000878553	0.557515
13406	-0.000992997	0.490575
13441	-0.000916701	0.427037
13476	-0.000840404	0.38015
13511	-0.000897627	0.346905
13546	-0.00082133	0.312465
13581	-0.000935775	0.291046
13616	-0.00103115	0.268122
13651	-0.000878553	0.253211
13686	-0.000859479	0.241283
13721	-0.000973923	0.225705
13756	-0.00101207	0.216726
13791	-0.000935775	0.203702
13826	-0.000745034	0.196185
13861	-0.000859479	0.188626
13896	-0.000840404	0.178844
13931	-0.000935775	0.173729
13966	-0.000973923	0.164369
14001	-0.00101207	0.159833
14036	-0.00103115	0.154437
14071	-0.00082133	0.148395
14106	-0.000878553	0.145243
14141	-0.000802256	0.13805
14176	-0.000935775	0.135307
14211	-0.000954849	0.130959
14246	-0.000859479	0.127044
14281	-0.000973923	0.125144
14316	-0.000897627	0.119501
14351	-0.000897627	0.117706
14386	-0.00101207	0.113878
14421	-0.000897627	0.111635
14456	-0.000973923	0.110684
14491	-0.000935775	0.106065
14526	-0.00101207	0.104823
14561	-0.000916701	0.101306
14596	-0.000935775	0.0999452
14631	-0.000992997	0.0992952
14666	-0.000840404	0.0955752
14701	-0.000973923	0.0947288
14736	-0.00103115	0.0916958
14771	-0.000973923	0.0908032
14806	-0.000916701	0.0900346
14841	-0.00101207	0.0873698
14876	-0.000954849	0.0869205
14911	-0.000878553	0.0838647
14946	-0.000992997	0.0833758
14981	-0.000897627	0.0825012
15016	-0.00082133	0.0804807
15051	-0.000954849	0.0805631
15086	-0.000973923	0.0776843
15121	-0.000935775	0.0774313
15156	-0.000878553	0.0761077
15191	-0.000859479	0.074887
15226	-0.000840404	0.0751903
15261	-0.000916701	0.0725115
15296	-0.000973923	0.0722495
15331	-0.00082133	0.070785
15366	-0.000783182	0.0700565
15401	-0.000897627	0.0705156
15436	-0.000992997	0.0680279
15471	-0.000954849	0.0679522
15506	-0.000916701	0.0664115
15541	-0.00082133	0.0659348
15576	-0.00101207	0.0663833
15611	-0.000954849	0.0641465
15646	-0.000935775	0.0642138
15681	-0.000916701	0.0625627
15716	-0.000973923	0.0624031
15751	-0.000992997	0.0624641
15786	-0.000935775	0.0608385
15821	-0.00101207	0.0611464
15856	-0.000973923	0.0592185
15891	-0.000935775	0.0593533
15926	-0.000973923	0.0589653
15961	-0.00105022	0.0579164
15996	-0.000954849	0.0583375
16031	-0.000878553	0.0565004
16066	-0.00105022	0.0565427
16101	-0.000916701	0.0559466
16136	-0.000916701	0.0553019
16171	-0.000745034	0.0559526
16206	-0.000859479	0.0539635
16241	-0.000745034	0.0541975
16276	-0.000954849	0.0532193
16311	-0.000859479	0.0529317
16346	-0.000878553	0.0536081
16381	-0.000916701	0.0517028
16416	-0.00105022	0.0518882
16451	-0.000897627	0.0508291
16486	-0.00103115	0.0508575
16521	-0.000935775	0.0513787
16556	-0.000897627	0.0499024
16591	-0.000878553	0.0500068
16626	-0.000878553	0.0485792
16661	-0.000897627	0.0486693
16696	-0.000897627	0.0489775
16731	-0.000973923	0.0477591
16766	-0.000840404	0.0482399
16801	-0.000783182	0.046835
16836	-0.000992997	0.0470686
16871	-0.000916701	0.0467635
16906	-0.000840404	0.0461072
16941	-0.000973923	0.0467036
16976	-0.000916701	0.0451359
17011	-0.000935775	0.0454972
17046	-0.000935775	0.0448988
17081	-0.00103115	0.0445587
17116	-0.000897627	0.0453627
17151	-0.000897627	0.0437876
17186	-0.000764108	0.0440339
17221	-0.000935775	0.0433056
17256	-0.00101207	0.0432087
17291	-0.00101207	0.0439545
17326	-0.000954849	0.0425538
17361	-0.000916701	0.0427488
17396	-0.00103115	0.0419649
17431	-0.000935775	0.0420675
17466	-0.000935775	0.0426122
17501	-0.000840404	0.0414655
17536	-0.00106929	0.0416613
17571	-0.000859479	0.0407332
17606	-0.00110744	0.0408697
17641	-0.000859479	0.0411518
17676	-0.000840404	0.0402944
17711	-0.000859479	0.0407439
17746	-0.000916701	0.0395937
17781	-0.000916701	0.0397557
17816	-0.000935775	0.0397676
17851	-0.000897627	0.0392481
17886	-0.000973923	0.0398778
17921	-0.000878553	0.038653
17956	-0.000992997	0.0389043
17991	-0.000973923	0.0385064
18026	-0.000954849	0.0382862
18061	-0.000954849	0.0389883
18096	-0.00072596	0.0377437
18131	-0.000897627	0.0379792
18166	-0.000878553	0.0373857
18201	-0.000916701	0.0373658
18236	-0.000935775	0.0381027
18271	-0.000897627	0.0369235
18306	-0.000783182	0.0371737
18341	-0.000878553	0.0363783
18376	-0.000783182	0.0365092
18411	-0.000954849	0.0370118
18446	-0.000897627	0.0359715
18481	-0.000840404	0.0363852
18516	-0.000973923	0.0354666
18551	-0.000954849	0.0356922
18586	-0.000935775	0.0359729
18621	-0.000840404	0.035214
18656	-0.000935775	0.0357246
18691	-0.000916701	0.0346732
18726	-0.000954849	0.0348589
18761	-0.000973923	0.0348902
18796	-0.000973923	0.0344449
18831	-0.000764108	0.035221
18866	-0.000745034	0.0339221
18901	-0.000783182	0.0342087
18936	-0.000954849	0.0339155
18971	-0.000973923	0.0337759
19006	-0.000935775	0.0345095
19041	-0.000973923	0.0332774
19076	-0.000916701	0.0335169
19111	-0.000935775	0.0331073
19146	-0.00101207	0.0330927
19181	-0.000878553	0.033693
19216	-0.000802256	0.0326378
19251	-0.000992997	0.0329687
19286	-0.000764108	0.0324378
19321	-0.000954849	0.0324852
19356	-0.000935775	0.0329241
19391	-0.00101207	0.0321726
19426	-0.00082133	0.0325741
19461	-0.00082133	0.0317472
19496	-0.000897627	0.0319326
19531	-0.000878553	0.0321593
19566	-0.000916701	0.0316236
19601	-0.000916701	0.0320556
19636	-0.000840404	0.0312502
19671	-0.00082133	0.0314394
19706	-0.00106929	0.0312372
19741	-0.000878553	0.0310521
19776	-0.000840404	0.0316165
19811	-0.000859479	0.0306906
19846	-0.000916701	0.0309861
19881	-0.000859479	0.0306115
19916	-0.00101207	0.0305244
19951	-0.000954849	0.0312515
19986	-0.000897627	0.0302724
20021	-0.000992997	0.0304454
20056	-0.000840404	0.0300378
20091	-0.000916701	0.0300271
20126	-0.000935775	0.0306983
20161	-0.000935775	0.0298075
20196	-0.000954849	0.0300839
20231	-0.00101207	0.0295694
20266	-0.000859479	0.0296681
20301	-0.000859479	0.0300466
20336	-0.000954849	0.0293032
20371	-0.000859479	0.0296687
20406	-0.00103115	0.0290171
20441	-0.000878553	0.0292356
20476	-0.00082133	0.0293851
20511	-0.000878553	0.0288794
20546	-0.000840404	0.0294335
20581	-0.000916701	0.0285946
20616	-0.000897627	0.0288107
20651	-0.000764108	0.0287562
20686	-0.000840404	0.0285034
20721	-0.000992997	0.0291963
20756	-0.000973923	0.0281487
20791	-0.000802256	0.0284044
20826	-0.00103115	0.0281425
20861	-0.000840404	0.0280889
20896	-0.000916701	0.0287967
20931	-0.000954849	0.0278385
20966	-0.000992997	0.0280552
21001	-0.00110744	0.0276553
21036	-0.000859479	0.0277562
21071	-0.000897627	0.0283589
21106	-0.000897627	0.0275468
21141	-0.000916701	0.0278094
21176	-0.00103115	0.0272742
21211	-0.000859479	0.027445
21246	-0.000973923	0.0277904
21281	-0.000840404	0.0272065
21316	-0.000935775	0.0276835
21351	-0.000897627	0.0269441
21386	-0.000897627	0.0270534
21421	-0.000859479	0.0271807
21456	-0.000916701	0.0268537
21491	-0.000935775	0.0273546
21526	-0.000897627	0.0265712
21561	-0.000859479	0.0267775
21596	-0.000745034	0.0267428
21631	-0.000916701	0.0265339
21666	-0.00105022	0.0272001
21701	-0.00101207	0.0263541
21736	-0.00112652	0.0265546
21771	-0.000916701	0.0262451
21806	-0.000897627	0.0262925
21841	-0.000935775	0.0268895
21876	-0.000878553	0.026103
21911	-0.00103115	0.0261225
21946	-0.000954849	0.0258923
21981	-0.00101207	0.0259759
22016	-0.000973923	0.0263481
22051	-0.000954849	0.0257184
22086	-0.000859479	0.0259654
22121	-0.000935775	0.0254927
22156	-0.000954849	0.0256244
22191	-0.000916701	0.0260018
22226	-2.0007	-47.1938
22261	-2.00086	-18.6829
22296	-2.00086	-12.2677
22331	-2.00095	-9.34497
22366	-2.00095	-7.67308
22401	-2.00091	-6.61407
22436	-2.00089	-5.90587
22471	-2.0008	-5.38654
22506	-2.00078	-5.01133
22541	-2.00086	-4.73892
22576	-2.00082	-4.5099
22611	-2.0007	-4.32526
22646	-2.00086	-4.1561
22681	-2.00093	-4.03348
22716	-2.00084	-3.91069
22751	-2.00091	-3.81503
22786	-2.00082	-3.733
22821	-2.00093	-3.65648
22856	-2.00089	-3.58717
22891	-2.00093	-3.52182
22926	-2.00087	-3.4765
22961	-2.00093	-3.42751
22996	-2.00089	-3.38275
23031	-2.00082	-3.34633
23066	-2.0008	-3.31027
23101	-0.00101207	153.23
23136	-0.000954849	3.81191
23171	-0.000897627	2.23847
23206	-0.000897627	1.77151
23241	-0.000954849	1.53856
23276	-0.000935775	1.43056
23311	-0.000878553	1.36001
23346	-0.000916701	1.30236
23381	-0.000992997	1.27662
23416	-0.000954849	1.2212
23451	-0.000802256	1.18772
23486	-0.00112652	1.14601
23521	-0.000973923	1.10223
23556	-0.000897627	1.07288
23591	-0.00082133	1.01706
23626	-0.000878553	0.981815
23661	-0.00072596	0.938214
23696	-0.00082133	0.901714
23731	-0.000897627	0.874672
23766	-0.000783182	0.833472
23801	-0.00106929	0.808744
23836	-0.000897627	0.77361
23871	-0.000897627	0.748858
23906	-0.000859479	0.727896
23941	-0.00105022	0.701064
23976	-0.000916701	0.686949
24011	-0.000840404	0.661445
24046	-0.000897627	0.6468
24081	-0.000897627	0.631837
24116	-0.000916701	0.615418
24151	-0.000802256	0.608246
24186	-0.000764108	0.58812
24221	-0.000840404	0.578723
24256	-0.000783182	0.565757
24291	-0.000840404	0.554891
24326	-0.000992997	0.550023
24361	-0.000992997	0.533392
24396	-0.000973923	0.526612
24431	-0.00105022	0.514766
24466	-0.00103115	0.506737
24501	-0.000840404	0.502634
24536	-0.000916701	0.488975
24571	-0.000859479	0.481958
24606	-0.000954849	0.470589
24641	-0.00103115	0.464624
24676	-0.000840404	0.460136
24711	-0.000859479	0.44944
24746	-0.000954849	0.44604
24781	-0.000802256	0.434963
24816	-0.00082133	0.430253
24851	-0.000859479	0.424822
24886	-0.000992997	0.416792
24921	-0.000897627	0.414511
24956	-0.000992997	0.403863
24991	-0.000745034	0.400005
25026	-0.000954849	0.393901
25061	-0.000935775	0.387872
25096	-0.000897627	0.386518
25131	-0.00103115	0.376715
25166	-0.000935775	0.373302
25201	-0.000764108	0.366941
25236	-0.000916701	0.362424
25271	-0.000954849	0.361146
25306	-0.000878553	0.352336
25341	-0.000916701	0.349711
25376	-0.000935775	0.342998
25411	-0.000897627	0.339477
25446	-0.000954849	0.337593
25481	-0.000897627	0.33023
25516	-0.000859479	0.328167
25551	-0.000954849	0.321173
25586	-0.00082133	0.318475
25621	-0.000878553	0.315805
25656	-0.000954849	0.310039
25691	-0.000916701	0.308514
25726	-0.000973923	0.301758
25761	-0.000916701	0.299264
25796	-0.000973923	0.295978
25831	1.49947	25.2888
25866	1.49945	16.3962
25901	1.49957	12.8934
25936	1.49947	11.0377
25971	1.49955	9.85419
26006	1.49947	9.04342
26041	1.49949	8.43334
26076	1.49949	7.97532
26111	-0.000973923	-3.9802
26146	-0.000878553	-0.502417
26181	-0.000935775	0.182609
26216	-0.000973923	0.397745
26251	-0.000878553	0.388593
26286	-0.00082133	0.361617
26321	-0.000954849	0.323992
26356	-0.00072596	0.293476
26391	-0.00082133	0.269371
26426	-0.000973923	0.246091
26461	-0.000973923	0.228297
26496	-0.000973923	0.209245
26531	-0.000840404	0.197673
26566	-0.000973923	0.186645
26601	-0.00105022	0.176485
26636	-0.00082133	0.169574
26671	-0.000916701	0.159287
26706	-0.000897627	0.154218
26741	-0.000897627	0.148315
26776	-0.000973923	0.142545
26811	-0.00103115	0.139213
26846	-0.000897627	0.132564
26881	-0.000935775	0.129034
26916	-0.000878553	0.124015
26951	-0.00103115	0.120187
26986	-0.000973923	0.118052
27021	-0.000897627	0.112847
27056	-0.000764108	0.110622
27091	-0.000840404	0.106914
27126	-0.000802256	0.104765
27161	-0.000973923	0.103444
27196	-0.000897627	0.0993379
27231	-0.000954849	0.0978103
27266	-0.000916701	0.0945646
27301	-0.000992997	0.0928346
27336	-0.000916701	0.0916995
27371	-0.000954849	0.0885408
27406	-0.000878553	0.0874941
27441	-0.000859479	0.0844704
27476	-0.00101207	0.0833487
27511	-0.000840404	0.0821629
27546	-0.000783182	0.0799328
27581	-0.000954849	0.0794085
27616	-0.000916701	0.0766894
27651	-0.000973923	0.075871
27686	-0.000840404	0.0744949
27721	-0.000859479	0.0729279
27756	-0.000840404	0.0727288
27791	-0.000935775	0.0701959
27826	-0.000954849	0.0696316
27861	-0.000916701	0.0681715
27896	-0.000954849	0.0672207
27931	-0.000878553	0.0672337
27966	-0.000954849	0.0649521
28001	-0.00082133	0.0644939
28036	-0.000878553	0.0629641
28071	-0.00103115	0.0624072
28106	-0.000992997	0.0623578
28141	-0.00101207	0.0605075
28176	-0.000859479	0.0601826
28211	-0.000840404	0.0585824
28246	-0.000916701	0.0581906
28281	-0.00082133	0.0581181
28316	-0.000916701	0.0565704
28351	-0.000840404	0.0564415
28386	-0.000783182	0.0548721
28421	-0.00103115	0.0547089
28456	-0.000954849	0.0544383
28491	-0.000954849	0.0532337
28526	-0.000840404	0.0534182
28561	-0.000897627	0.0516768
28596	-0.000992997	0.0516628
28631	-0.000897627	0.0511322
28666	-0.000783182	0.0504257
28701	-0.000897627	0.0506838
28736	-0.000935775	0.0491322
28771	-0.000992997	0.0488232
28806	-0.000916701	0.048113
28841	-0.00110744	0.0475466
28876	-0.00108837	0.048033
28911	-0.000992997	0.0464411
28946	-0.00082133	0.0463304
28981	-0.000802256	0.045633
29016	-0.000973923	0.0453402
29051	-0.000897627	0.0457577
29086	-0.000973923	0.0444682
29121	-0.000992997	0.0443841
29156	-0.000935775	0.0433917
29191	-0.000878553	0.0433477
29226	-0.000897627	0.0435084
29261	-0.000840404	0.042527
29296	-0.000878553	0.042676
29331	-0.000897627	0.0415389
29366	-0.000878553	0.0415817
29401	-0.00082133	0.0415847
29436	-0.000878553	0.0407949
29471	-0.000935775	0.0411393
29506	-0.000935775	0.0399349
29541	-0.00101207	0.0399339
29576	-0.000954849	0.0397404
29611	-0.00082133	0.0392801
29646	-0.000992997	0.0396778
29681	-0.00101207	0.0385112
29716	-0.00103115	0.0385379
29751	-0.000802256	0.0380561
29786	-0.000973923	0.0378565
29821	-0.000954849	0.0383481
29856	-0.000992997	0.0371389
29891	-0.00101207	0.0372041
29926	-0.000935775	0.0366833
29961	-0.00103115	0.0365484
29996	-0.00082133	0.0369889
30031	-0.000878553	0.035938
30066	-0.000859479	0.0361074
30101	-0.000897627	0.0354316
30136	-0.000859479	0.0354302
30171	-0.000916701	0.0355991
30206	-0.000992997	0.0348578
30241	-0.00103115	0.0351657
30276	-0.000992997	0.0342311
30311	-0.00106929	0.0343523
30346	-0.000935775	0.0343536
30381	-0.000935775	0.0337825
30416	-0.000802256	0.0341399
30451	-0.000935775	0.0332627
30486	-0.000859479	0.0332333
30521	-0.000935775	0.0330055
30556	-0.000973923	0.032818
30591	-0.000916701	0.033284
30626	-0.000764108	0.0322628
30661	-0.000897627	0.0324003
30696	-0.000745034	0.0320589
30731	-0.000802256	0.0318218
30766	-0.00082133	0.0324171
30801	-0.00082133	0.0314361
30836	-0.000764108	0.0314981
30871	-0.000840404	0.0310316
30906	-0.000840404	0.03112
30941	-0.000878553	0.0313819
30976	-0.000935775	0.0306289
31011	-0.000973923	0.0308263
31046	-0.000954849	0.0302785
31081	-0.000973923	0.0302594
31116	-0.000916701	0.0304673
31151	-0.000935775	0.0299121
31186	-0.000916701	0.030183
31221	-0.000954849	0.0294557
31256	-0.00105022	0.029496
31291	-0.000916701	0.0295729
31326	-0.000973923	0.029198
31361	-0.00105022	0.029542
31396	-0.00110744	0.0287461
31431	-0.000973923	0.0288905
31466	-0.000897627	0.0287227
31501	-0.000973923	0.0284757
31536	-0.000992997	0.0290044
31571	-0.00082133	0.0281879
31606	-0.000878553	0.0282393
31641	-0.000954849	0.0279311
31676	-0.00101207	0.0278594
31711	-0.000935775	0.0283813
31746	-0.000878553	0.0275203
31781	-0.000973923	0.0276821
31816	-0.000878553	0.0272665
31851	-0.000859479	0.0272813
31886	-0.00103115	0.0276208
31921	-0.000878553	0.0269284
31956	-0.000802256	0.0271719
31991	-0.000897627	0.0266868
32026	-0.000897627	0.0266941
32061	-0.000897627	0.0269123
32096	-0.000916701	0.0264561
32131	-0.00101207	0.0267842
32166	-0.000916701	0.026117
32201	-0.000897627	0.0262176
32236	-0.000878553	0.0262606
32271	-0.00101207	0.0259058
32306	-0.000878553	0.0262772
32341	-0.000954849	0.0256587
32376	-0.00082133	0.0256284
32411	-0.000878553	0.0255605
32446	-0.000878553	0.0253787
32481	-0.000630589	0.0258961
32516	-0.000973923	0.0251036
32551	-0.000783182	0.0252679
32586	-0.000878553	0.0249725
32621	-0.000706886	0.0249322
32656	-0.00114559	0.0254289
32691	-0.000916701	0.0247412
32726	-0.000954849	0.0247691
32761	-0.000840404	0.0244933
32796	-0.000897627	0.0244918
32831	-0.00082133	0.0248692
32866	-0.000878553	0.024215
32901	-0.000859479	0.0244396
32936	-0.00106929	0.0239643
32971	-0.00082133	0.0241232
33006	-0.000954849	0.0242607
33041	-0.00105022	0.0238254
33076	-0.000935775	0.0241382
33111	-0.000859479	0.0235121
33146	-0.000859479	0.0236438
33181	-0.00082133	0.0236243
33216	-0.00101207	0.023451
33251	-0.000840404	0.0238729
33286	-0.000954849	0.0232157
33321	-0.000935775	0.023275
33356	-0.00105022	0.023196
33391	-0.000954849	0.0231122
33426	-0.000916701	0.0235171
33461	-0.000878553	0.0228916
33496	-0.00082133	0.0230061
33531	-0.00103115	0.0226851
33566	-0.000840404	0.0227539
33601	-0.000916701	0.023131
33636	-0.000878553	0.0226186
33671	-0.00103115	0.0227088
33706	-0.000935775	0.0223033
33741	-0.000916701	0.0223844
33776	-0.000973923	0.0227025
33811	-0.00082133	0.0222301
33846	-0.000935775	0.0224155
33881	-0.000897627	0.0219496
33916	-0.00101207	0.022019
33951	-0.000802256	0.0222786
33986	-0.000859479	0.0218197
34021	-0.000859479	0.0222148
34056	-0.000973923	0.0216505
34091	-0.000878553	0.0218033
34126	-0.000897627	0.021763
34161	-0.000878553	0.0215632
34196	-0.00106929	0.0219438
34231	-0.00082133	0.0213744
34266	-0.000935775	0.021459
34301	-0.000935775	0.0212573
34336	-0.000954849	0.0212041
34371	-0.000897627	0.0217094
34406	-0.000916701	0.0210616
34441	-0.000687812	0.0211538
34476	-0.000859479	0.0209202
34511	-0.00082133	0.0209505
34546	-0.000973923	0.0212999
34581	-0.000859479	0.0208408
34616	-0.000802256	0.0209512
34651	-0.000783182	0.0205687
34686	-0.00101207	0.020699
34721	-0.000973923	0.0209846
34756	-0.00110744	0.020519
34791	-0.00108837	0.0207865
34826	-0.00108837	0.0203121
34861	-0.00072596	0.0203583
34896	-0.00082133	0.0205441
34931	-0.000878553	0.0201925
34966	-0.000783182	0.0206225
35001	-0.000859479	0.0200052
35036	-0.000764108	0.0201856
35071	-0.000916701	0.0200713
35106	-2.00097	-122.938
35141	-2.00097	-19.2983
35176	-2.00093	-11.3633
35211	-2.00084	-8.47872
35246	-2.00082	-6.88547
35281	-2.0008	-5.90301
35316	-2.00089	-5.249
35351	-2.00086	-4.81319
35386	-2.00076	-4.48536
35421	-2.00097	-4.23284
35456	-2.00078	-4.04618
35491	-2.00087	-3.89317
35526	-2.00099	-3.76128
35561	-2.00093	-3.65892
35596	-2.00076	-3.56544
35631	-2.00087	-3.48622
35666	-2.0008	-3.41639
35701	-2.00084	-3.36378
35736	-2.00097	-3.31741
35771	-2.0008	-3.26222
35806	-2.00091	-3.22995
35841	-2.00101	-3.19494
35876	-2.00087	-3.15925
35911	-2.00095	-3.13709
35946	-2.00095	-3.10747
35981	-2.00093	-3.09869
36016	-0.00082133	7.38221
36051	-0.000935775	2.62742
36086	-0.000859479	1.75714
36121	-0.000935775	1.40179
36156	-0.000935775	1.24749
36191	-0.000897627	1.14478
36226	-0.000802256	1.08272
36261	-0.000897627	1.04383
36296	-0.000916701	0.995454
36331	-0.000897627	0.968686
36366	-0.000802256	0.928808
36401	-0.000992997	0.89889
36436	-0.000897627	0.871479
36471	-0.000954849	0.834499
36506	-0.000916701	0.810566
36541	-0.000916701	0.772624
36576	-0.000935775	0.745609
36611	-0.000878553	0.718159
36646	-0.00105022	0.688029
36681	-0.000897627	0.667495
36716	-0.000878553	0.634244
36751	-0.00101207	0.61193
36786	-0.000878553	0.587725
36821	-0.000973923	0.56576
36856	-0.000897627	0.550924
36891	-0.000859479	0.5264
36926	-0.000783182	0.511014
36961	-0.000916701	0.49271
36996	-0.00105022	0.476249
37031	-0.000802256	0.466316
37066	-0.000916701	0.449408
37101	-0.00101207	0.440127
37136	-0.000935775	0.426858
37171	-0.000916701	0.418093
37206	-0.00101207	0.411021
37241	-0.00101207	0.399792
37276	-0.000878553	0.394409
37311	-0.000916701	0.383965
37346	-0.000878553	0.37835
37381	-0.00103115	0.372567
37416	-0.000992997	0.364836
37451	-0.000878553	0.361533
37486	-0.000859479	0.3526
37521	-0.000916701	0.348468
37556	-0.000859479	0.343045
37591	-0.000954849	0.33747
37626	-0.00108837	0.335573
37661	-0.00082133	0.327233
37696	-0.000992997	0.324076
37731	-0.000878553	0.318842
37766	-0.00101207	0.314809
37801	-0.00105022	0.313191
37836	-0.000878553	0.306312
37871	-0.000897627	0.303703
37906	-0.00101207	0.298525
37941	-0.000859479	0.295582
37976	-0.000840404	0.294005
38011	-0.000992997	0.28812
38046	-0.00106929	0.286177
38081	-0.00106929	0.281114
38116	-0.00082133	0.278661
38151	-0.00101207	0.276749
38186	-0.000897627	0.271996
38221	-0.00082133	0.270726
38256	-0.000992997	0.265707
38291	-0.00082133	0.263759
38326	-0.00101207	0.261276
38361	-0.000878553	0.257657
38396	-0.000878553	0.256854
38431	-0.000935775	0.251858
38466	-0.00108837	0.250222
38501	-0.00103115	0.247347
38536	-0.000859479	0.244695
38571	-0.00103115	0.244083
38606	-0.000954849	0.239375
38641	-0.000954849	0.237935
38676	-0.000954849	0.23469
38711	1.49947	37.7197
38746	1.49949	17.3472
38781	1.49949	12.1028
38816	1.49955	9.85457
38851	1.4996	8.63319
38886	1.49945	7.8556
38921	1.49955	7.30006
38956	1.49953	6.93403
38991	1.4996	6.6089
39026	-0.000973923	-1.35354
39061	-0.000916701	-0.213053
39096	-0.000897627	0.219591
39131	-0.000897627	0.294696
39166	-0.000954849	0.287528
39201	-0.00082133	0.264099
39236	-0.000954849	0.244206
39271	-0.000764108	0.223377
39306	-0.000916701	0.205135
39341	-0.000954849	0.191493
39376	-0.000859479	0.175533
39411	-0.000935775	0.164922
39446	-0.000897627	0.154694
39481	-0.00103115	0.146279
39516	-0.000878553	0.139496
39551	-0.000916701	0.13057
39586	-0.000897627	0.125317
39621	-0.000802256	0.119106
39656	-0.000840404	0.114676
39691	-0.00082133	0.111263
39726	-0.000878553	0.105838
39761	-0.000859479	0.102699
39796	-0.000859479	0.0983519
39831	-0.00103115	0.0956314
39866	-0.000916701	0.0934303
39901	-0.000878553	0.0896942
39936	-0.00082133	0.0877971
39971	-0.000954849	0.0844288
40006	-0.000840404	0.0827329
40041	-0.00103115	0.0811066
40076	-0.000916701	0.0784206
40111	-0.00101207	0.0773274
40146	-0.000973923	0.0745442
40181	-0.000992997	0.0732438
40216	-0.00103115	0.0718325
40251	-0.000973923	0.0699036
40286	-0.000973923	0.0692191
40321	-0.000859479	0.066856
40356	-0.000897627	0.0659967
40391	-0.000992997	0.064684
40426	-0.000764108	0.0634941
40461	-0.000840404	0.0630927
40496	-0.000973923	0.0609231
40531	-0.000897627	0.0602812
40566	-0.000916701	0.0589879
40601	-0.000859479	0.0581197
40636	-0.000992997	0.0581272
40671	-0.000878553	0.0562186
40706	-0.000916701	0.0556543
40741	-0.000916701	0.0544705
40776	-0.000916701	0.0537775
40811	-0.000611515	0.0536439
40846	-0.000992997	0.0521779
40881	-0.000897627	0.0518882
40916	-0.000802256	0.0505938
40951	-0.000916701	0.050242
40986	-0.000916701	0.0499396
41021	-0.000954849	0.0488622
41056	-0.000878553	0.0485147
41091	-0.000935775	0.0472393
41126	-0.000649663	0.0469804
41161	-0.000916701	0.0464893
41196	-0.000916701	0.0458118
41231	-0.000954849	0.0458428
41266	-0.000859479	0.0445701
41301	-0.000992997	0.0443576
41336	-0.000840404	0.0438394
41371	-0.000897627	0.0432559
41406	-0.000954849	0.0436019
41441	-0.000973923	0.0423326
41476	-0.000916701	0.042164
41511	-0.000973923	0.041475
41546	-0.000954849	0.0411612
41581	-0.000954849	0.0413932
41616	-0.000954849	0.0402645
41651	-0.000840404	0.0401527
41686	-0.000840404	0.0394311
41721	-0.00101207	0.0393325
41756	-0.000897627	0.0393512
41791	-0.000916701	0.038496
41826	-0.000897627	0.0384857
41861	-0.000878553	0.0375898
41896	-0.00105022	0.0375734
41931	-0.000878553	0.0375566
41966	-0.000916701	0.0367846
42001	-0.000935775	0.0369685
42036	-0.00108837	0.0360325
42071	-0.000916701	0.0359866
42106	-0.00082133	0.035821
42141	-0.000840404	0.0352836
42176	-0.000878553	0.0356407
42211	-0.000935775	0.0346181
42246	-0.00082133	0.0346594
42281	-0.000954849	0.0342048
42316	-0.000973923	0.0340199
42351	-0.000973923	0.034333
42386	-0.000859479	0.0334071
42421	-0.000783182	0.033344
42456	-0.00101207	0.0329408
42491	-0.000897627	0.0327816
42526	-0.000783182	0.0331262
42561	-0.000706886	0.0323111
42596	-0.000878553	0.0322998
42631	-0.000897627	0.0317392
42666	-0.000802256	0.0316585
42701	-0.000802256	0.0318853
42736	-0.000954849	0.0312927
42771	-0.000878553	0.0313596
42806	-0.000935775	0.0306886
42841	-0.000954849	0.0306649
42876	-0.000954849	0.0307665
42911	-0.000840404	0.0302792
42946	-0.000935775	0.0304602
42981	-0.000859479	0.0297478
43016	-0.000859479	0.0297908
43051	-0.000878553	0.0297181
43086	-0.000935775	0.0292861
43121	-0.000916701	0.0295714
43156	-0.00110744	0.0288418
43191	-0.000973923	0.0289495
43226	-0.000878553	0.0286311
43261	-0.000935775	0.0284622
43296	-0.000916701	0.0288538
43331	-0.000897627	0.0280762
43366	-0.000916701	0.0280687
43401	-0.000878553	0.0277918
43436	-0.000973923	0.0276809
43471	-0.000840404	0.0280132
43506	-0.000916701	0.0273339
43541	-0.000840404	0.0273841
43576	-0.000935775	0.0269571
43611	-0.000973923	0.02698
43646	-0.00103115	0.0270555
43681	-0.000878553	0.0265891
43716	-0.000840404	0.0267879
43751	-0.000859479	0.0262964
43786	-0.000897627	0.026288
43821	-0.000916701	0.0263601
43856	-0.000878553	0.026021
43891	-0.000992997	0.0262299
43926	-0.000935775	0.0255654
43961	-0.000859479	0.0256704
43996	-0.000897627	0.025582
44031	-0.00082133	0.025327
44066	-0.000878553	0.0256844
44101	-0.000840404	0.0249888
44136	-0.000783182	0.0250809
44171	-0.000859479	0.0249099
44206	-0.000764108	0.024799
44241	-0.000916701	0.0252489
44276	-0.00082133	0.0245639
44311	-0.000954849	0.0245566
44346	-0.000897627	0.0243018
44381	-0.00072596	0.0242454
44416	-0.000992997	0.0246069
44451	-0.00101207	0.0239789
44486	-0.000954849	0.0239992
44521	-0.000916701	0.0236548
44556	-0.00101207	0.0237703
44591	-0.000783182	0.0239299
44626	-0.000954849	0.0234851
44661	-0.000859479	0.0237746
44696	-0.000954849	0.0231858
44731	-0.000916701	0.0231344
44766	-0.000954849	0.023301
44801	-0.000973923	0.0230586
44836	-0.000897627	0.0232408
44871	-0.000973923	0.0227503
44906	-0.00112652	0.0228091
44941	-0.000897627	0.0227114
44976	-0.000802256	0.0225991
45011	-0.00106929	0.022902
45046	-0.000897627	0.0222928
45081	-0.000973923	0.0223534
45116	-0.000935775	0.0222269
45151	-0.000954849	0.0221558
45186	-0.000783182	0.0225198
45221	-0.000935775	0.0219156
45256	-0.000973923	0.0219329
45291	-0.000878553	0.0217323
45326	-0.000802256	0.0217538
45361	-0.00103115	0.0220319
45396	-0.00082133	0.0215571
45431	-0.00105022	0.021606
45466	-0.000878553	0.0213035
45501	-0.000916701	0.0212989
45536	-0.000859479	0.0214831
45571	-0.000992997	0.021138
45606	-0.000859479	0.0213569
45641	-0.000859479	0.0208705
45676	-0.000916701	0.0209794
45711	-0.000802256	0.0210355
45746	-0.000916701	0.0207112
45781	-0.000935775	0.0210489
45816	-0.00082133	0.0205417
45851	-0.00101207	0.0205845
45886	-0.000973923	0.0205017
45921	-0.000935775	0.0204168
45956	-0.000973923	0.0207863
45991	-0.000954849	0.0201959
46026	-0.000992997	0.020249
46061	-0.00101207	0.0200666
46096	-0.00082133	0.0200527
46131	-0.000878553	0.020443
46166	-0.000916701	0.0198731
46201	-0.000916701	0.0199658
46236	-0.000954849	0.0196687
46271	-0.000859479	0.0197657
46306	-0.000954849	0.0200479
46341	-0.000878553	0.0196029
46376	-0.000954849	0.0197893
46411	-0.000878553	0.0194052
46446	-0.000878553	0.0194719
46481	-0.000859479	0.0196278
46516	-0.00101207	0.0193203
46551	-0.000840404	0.0195092
46586	-0.000954849	0.0191045
46621	-0.00103115	0.0191589
46656	-0.00103115	0.0191798
46691	-0.00108837	0.0189813
46726	-0.000859479	0.0192846
46761	-0.000783182	0.0187958
46796	-0.000897627	0.0188961
46831	-0.00082133	0.018854
46866	-0.000973923	0.0187387
46901	-0.000992997	0.0190923
46936	-0.000935775	0.0185993
46971	-0.00110744	0.0186075
47006	-0.000878553	0.0184436
47041	-0.000916701	0.0184276
47076	-0.000916701	0.0187997
47111	-0.000840404	0.0183341
47146	-0.000802256	0.0184162
47181	-0.000992997	0.0181168
47216	-0.000973923	0.0181636
47251	-0.000935775	0.0184584
47286	-0.000954849	0.0181268
47321	-0.000935775	0.0181855
47356	-0.000840404	0.0179395
47391	-0.000764108	0.0180067
47426	-0.00106929	0.0180709
47461	-0.000935775	0.0178642
47496	-0.000859479	0.0180769
47531	-0.000973923	0.0176705
47566	-0.000935775	0.0177399
47601	-0.000916701	0.0177618
47636	-0.000897627	0.0177248
47671	-0.000859479	0.0178183
47706	-0.00103115	0.0174672
47741	-0.00101207	0.0175225
47776	-0.000840404	0.0174457
47811	-0.000992997	0.0173682
47846	-0.00101207	0.0177292
47881	-0.000935775	0.0172357
47916	-0.000802256	0.0173178
47951	-0.000935775	0.0171978
47986	-0.000878553	0.017162
48021	-2.00097	-34.3431
48056	-2.00099	-12.2639
48091	-2.00086	-8.39814
48126	-2.00086	-6.60597
48161	-2.00089	-5.57431
48196	-2.00089	-4.90752
48231	-2.00093	-4.47228
48266	-2.00084	-4.1477
48301	-2.00086	-3.90579
48336	-2.00089	-3.72498
48371	-2.00099	-3.58695
48406	-2.00091	-3.46979
48441	-2.00087	-3.37552
48476	-2.00093	-3.30152
48511	-2.00095	-3.23882
48546	-2.00082	-3.17764
48581	-2.00095	-3.13659
48616	-2.00078	-3.10653
48651	-2.00078	-3.06515
48686	-2.00072	-3.03622
48721	-2.00095	-3.01008
48756	-2.00093	-2.9921
48791	-2.00087	-2.97666
48826	-2.00091	-2.95266
48861	-2.00093	-2.95002
48896	-2.00095	-2.93182
48931	-0.000973923	3.96799
48966	-0.00082133	1.98457
49001	-0.000783182	1.39085
49036	-0.000916701	1.14951
49071	-0.000878553	1.00193
49106	-0.000878553	0.922085
49141	-0.000916701	0.86513
49176	-0.000897627	0.818992
49211	-0.000802256	0.790699
49246	-0.000897627	0.751447
49281	-0.000935775	0.725575
49316	-0.000859479	0.697112
49351	-0.000840404	0.669788
49386	-0.00082133	0.650258
49421	-0.000954849	0.618731
49456	-0.00103115	0.597308
49491	-0.000916701	0.572259
49526	-0.000992997	0.550361
49561	-0.000916701	0.533765
49596	-0.00105022	0.508063
49631	-0.00082133	0.490987
49666	-0.000859479	0.468253
49701	-0.000878553	0.452063
49736	-0.000916701	0.438863
49771	-0.000935775	0.421195
49806	-0.000840404	0.40992
49841	-0.000935775	0.393912
49876	-0.00082133	0.383181
49911	-0.000897627	0.373171
49946	-0.000954849	0.361363
49981	-0.000954849	0.354112
50016	-0.000916701	0.342613
50051	-0.000897627	0.335422
50086	-0.00101207	0.328092
50121	-0.000954849	0.320411
50156	-0.000783182	0.316399
50191	-0.000878553	0.307713
50226	-0.00106929	0.303207
50261	-0.000840404	0.297293
50296	-0.000916701	0.292371
50331	-0.000783182	0.289739
50366	-0.000764108	0.282885
50401	-0.00082133	0.279679
50436	-0.000992997	0.274724
50471	-0.00103115	0.271257
50506	-0.000878553	0.269137
50541	-0.000878553	0.263738
50576	-0.000916701	0.26147
50611	-0.000954849	0.256793
50646	-0.000954849	0.254325
50681	-0.000859479	0.252422
50716	-0.000859479	0.247997
50751	-0.000916701	0.246423
50786	-0.000973923	0.242004
50821	-0.00106929	0.23994
50856	-0.000878553	0.23774
50891	-0.000973923	0.234515
50926	-0.00082133	0.233296
50961	-0.000897627	0.229002
50996	-0.000859479	0.227356
51031	-0.000935775	0.224825
51066	-0.000859479	0.222359
51101	-0.000916701	0.221549
51136	-0.000897627	0.217541
51171	-0.000973923	0.21614
51206	-0.00082133	0.213592
51241	-0.000840404	0.211519
51276	-0.000897627	0.21093
51311	-0.000878553	0.207318
51346	-0.000916701	0.206161
51381	-0.000878553	0.203469
51416	-0.000916701	0.201821
51451	-0.000764108	0.201098
51486	-0.00082133	0.197897
51521	-0.000973923	0.196936
51556	-0.000878553	0.194082
51591	-0.000992997	0.192916
51600	-0.00101207	0.192072