File: Data_28_Experiment/CA_266_005_minutes_C01.txt
time/s	Ewe/V	<I>/mA
1	1.49945	299.822
11	1.49949	40.9906
21	1.49961	23.3383
31	1.49962	19.1985
41	1.49955	17.9112
51	1.49953	18.3236
61	1.49938	20.303
71	1.49972	24.0202
81	1.49955	28.0597
91	1.49961	30.8178
101	1.49964	32.7254
111	1.49955	33.8789
121	1.49953	34.4441
131	1.49951	34.9413
141	1.49949	35.1377
151	1.49955	35.2018
161	1.49962	35.0116
171	1.49949	34.643
181	1.4997	34.3345
191	1.49968	33.8397
201	1.49949	33.3851
211	1.49959	32.7345
221	1.49957	32.0231
231	1.49945	31.419
241	1.49955	30.6456
251	1.49938	29.9579
261	1.49961	29.1687
271	1.49978	28.405
281	1.49964	27.6905
291	1.49953	26.9248
300.952	-0.000896816	-34.3188
310.952	-0.000782372	-4.35694
320.952	-0.000801446	-2.17076
330.952	-0.000858668	-1.15247
340.952	-0.00091589	-0.603214
350.952	-0.000934964	-0.350126
360.952	-0.000934964	-0.223085
370.952	-0.000896816	-0.15105
380.952	-0.000896816	-0.106441
390.952	-0.000954038	-0.0779808
400.952	-0.000973113	-0.0589294
410.952	-0.00091589	-0.0449278
420.952	-0.000877742	-0.0352325
430.952	-0.000992187	-0.0282254
440.952	-0.000782372	-0.0231069
450.952	-0.000992187	-0.019219
460.952	-0.000801446	-0.0144926
470.952	-0.000877742	-0.0101972
480.952	-0.000687001	-0.00570901
490.952	-0.00091589	-0.00137805
500.952	-0.000954038	0.00157653
510.952	-0.000839594	0.00470543
520.952	-0.000801446	0.00711339
530.952	-0.000973113	0.00887397
540.952	-0.000992187	0.011043
550.952	-0.000782372	0.0124107
560.952	-0.000934964	0.0141003
570.952	-0.00082052	0.0157244
580.952	-0.000858668	0.0172563
590.952	-0.000934964	0.0185976
600.952	-0.000973113	0.018661
610.952	-0.000877742	0.0193273
620.952	-0.000992187	0.0197013
630.952	-0.00091589	0.0200835
640.952	-0.000896816	0.0203627
650.952	-0.000973113	0.0200415
660.952	-0.000896816	0.0202405
670.952	-0.00091589	0.0198157
680.952	-0.000725149	0.0197189
690.952	-0.00101126	0.0197757
700.952	-0.00103033	0.0194245
710.952	-0.000877742	0.0196533
720.952	-0.000934964	0.0191326
730.952	-0.000782372	0.0192679
740.952	-0.000877742	0.0196045
750.952	-0.000973113	0.0190499
760.952	-0.00082052	0.0191634
770.952	-0.000896816	0.0189708
780.952	-0.00103033	0.0187822
790.952	-0.00082052	0.0188981
800.952	-0.00091589	0.0179454
810.952	-0.000877742	0.0175388
820.952	-0.000973113	0.0166589
830.952	-0.000896816	0.0163933
840.952	-0.000744223	0.0164014
850.952	-0.000992187	0.0157876
860.952	-0.000744223	0.0159792
870.952	-0.00104941	0.015885
880.952	-0.000992187	0.0164074
890.952	-0.000763297	0.0169705
900.952	-0.000858668	0.0167608
910.952	-0.000858668	0.0171567
920.952	-0.000896816	0.0172216
930.952	-0.00082052	0.0176417
940.952	-0.000973113	0.0181479
950.952	-0.00082052	0.0177645
960.952	-0.00106848	0.0181427
970.952	-0.00091589	0.0181108
980.952	-0.000973113	0.0183004
990.952	-0.000896816	0.018877
1000.95	-0.000954038	0.0183067
1010.95	-0.000858668	0.0186237
1020.95	-0.000858668	0.0182273
1030.95	-0.000763297	0.0184878
1040.95	-0.00091589	0.0187527
1050.95	-0.00091589	0.0181878
1060.95	-0.000954038	0.0183149
1070.95	-0.000973113	0.0178749
1080.95	-0.000877742	0.0179767
1090.95	-0.000801446	0.0182429
1100.95	-0.000839594	0.0180114
1110.95	-0.000934964	0.0182787
1120.95	-0.000782372	0.0177508
1130.95	-0.000896816	0.0179782
1140.95	-0.000877742	0.0183097
1150.95	-0.000992187	0.0178119
1160.95	-0.00082052	0.0179799
1170.95	-0.00082052	0.017518
1180.95	-0.000801446	0.0179795
1190.95	-0.000801446	0.0182675
1200.95	-0.000801446	0.0176552
1210.95	-0.00091589	0.0179992
1220.95	-0.00091589	0.0175884
1230.95	-0.000858668	0.017697
1240.95	-0.000954038	0.0181042
1250.95	-0.00101126	0.0175601
1260.95	-0.000954038	0.0179684
1270.95	-0.000934964	0.0175953
1280.95	-0.000896816	0.0176712
1290.95	-0.000801446	0.0179256
1300.95	-0.000992187	0.0170983
1310.95	-0.00082052	0.0177735
1320.95	-0.000858668	0.0171651
1330.95	-0.000896816	0.0175949
1340.95	-0.000877742	0.01778
1350.95	-0.000858668	0.0174934
1360.95	-0.00082052	0.0178403
1370.95	-0.000858668	0.0172098
1380.95	-0.000896816	0.0176829
1390.95	-0.000858668	0.0175761
1400.95	-0.000954038	0.0174589
1410.95	-0.000858668	0.0176887
1420.95	-0.000858668	0.0171824
1430.95	-0.000782372	0.0173795
1440.95	-0.000973113	0.017636
1450.95	-0.000801446	0.0173489
1460.95	-0.000801446	0.0176226
1470.95	-0.000858668	0.017186
1480.95	-0.000896816	0.0175808
1490.95	-0.00091589	0.0177097
1500.95	-0.00091589	0.0175908
1510.95	-0.000782372	0.0178611
1520.95	-0.000801446	0.0173596
1530.95	-0.00082052	0.0177306
1540.95	-0.00082052	0.0174762
1550.95	-0.000801446	0.0172819
1560.95	-0.000839594	0.017684
1570.95	-0.000839594	0.0169195
1580.95	-0.00091589	0.01741
1590.95	-0.000934964	0.0172251
1600.95	-0.000973113	0.017331
1610.95	-0.00082052	0.0174768
1620.95	-0.000839594	0.01703
1630.95	-0.000877742	0.0174887
1640.95	-0.000858668	0.0175077
1650.95	-0.000706075	0.0175501
1660.95	-0.000763297	0.0181665
1670.95	-0.000801446	0.0175065
1680.95	-0.000954038	0.0177314
1690.95	-0.000839594	0.017753
1700.95	-0.00082052	0.0177045
1710.95	-0.000877742	0.0180376
1720.95	-0.000992187	0.0175176
1730.95	-0.000877742	0.0177416
1740.95	-0.000858668	0.0172807
1750.95	-0.00091589	0.017574
1760.95	-0.000858668	0.0182507
1770.95	-0.000858668	0.0173523
1780.95	-0.000877742	0.0176171
1790.95	-0.000973113	0.0174346
1800.95	-0.000934964	0.0174966
1810.95	-0.000839594	0.0179064
1820.95	-0.000954038	0.0171561
1830.95	-0.000801446	0.0176748
1840.95	-0.000801446	0.0174468
1850.95	-0.00082052	0.0175444
1860.95	-0.000954038	0.0178961
1870.95	-0.000858668	0.0173556
1880.95	-0.000896816	0.0175377
1890.95	-0.00103033	0.017485
1900.95	-0.000877742	0.0175933
1910.95	-0.00082052	0.0179093
1920.95	-0.000954038	0.0174849
1930.95	-0.00082052	0.0178439
1940.95	-0.00082052	0.0176552
1950.95	-0.000954038	0.0177741
1960.95	-0.000896816	0.0181999
1970.95	-0.000992187	0.0177659
1980.95	-0.000877742	0.0180129
1990.95	-0.000877742	0.0176829
2000.95	-0.000973113	0.0177697
2010.95	-0.000858668	0.0182585
2020.95	-0.000763297	0.0178407
2030.95	-0.00082052	0.0180277
2040.95	-0.000858668	0.0176119
2050.95	-0.000934964	0.0178878
2060.95	-0.00091589	0.0182158
2070.95	-0.00082052	0.0178952
2080.95	-0.000858668	0.0179305
2090.95	-0.000839594	0.0177428
2100.95	-0.000877742	0.0178227
2110.95	-0.000954038	0.0181543
2120.95	-0.000934964	0.0174932
2130.95	-0.000763297	0.0178076
2140.95	-0.000954038	0.0173043
2150.95	-0.00106848	0.017501
2160.95	-0.000934964	0.017877
2170.95	-0.000934964	0.0173488
2180.95	-0.00091589	0.0175863
2190.95	-0.00082052	0.0173255
2200.95	-0.000744223	0.0175103
2210.95	-0.000896816	0.0178128
2220.95	-0.000934964	0.0174032
2230.95	-0.000858668	0.0176177
2240.95	-0.000896816	0.017385
2250.95	-0.00108756	0.0173196
2260.95	-0.00091589	0.0177352
2270.95	-0.00082052	0.0173756
2280.95	-0.000839594	0.0175274
2290.95	-0.000954038	0.0173166
2300.95	-0.000877742	0.0174312
2310.95	-0.000954038	0.0176348
2320.95	-0.000973113	0.0173268
2330.95	-0.000877742	0.0176083
2340.95	-0.000934964	0.0172782
2350.95	-0.000934964	0.0174311
2360.95	-0.00101126	0.0174246
2370.95	-0.000877742	0.0173831
2380.95	-0.000782372	0.0176998
2390.95	-0.000934964	0.0172387
2400.95	-0.00091589	0.017457
2410.95	-0.00104941	0.0175341
2420.95	-0.000877742	0.0173121
2430.95	-0.000992187	0.0177839
2440.95	-0.000896816	0.0173852
2450.95	-0.00103033	0.0173641
2460.95	-0.000782372	0.0175084
2470.95	-0.000896816	0.0172596
2480.95	-0.00101126	0.0176197
2490.95	-0.000954038	0.0169798
2500.95	-0.000973113	0.0171806
2510.95	-0.000782372	0.017306
2520.95	-0.000839594	0.0170577
2530.95	-0.000992187	0.0173651
2540.95	-0.000954038	0.016995
2550.95	-0.000934964	0.0169197
2560.95	-0.00082052	0.0168791
2570.95	-0.00104941	0.0169044
2580.95	-0.000992187	0.0174127
2590.95	-0.000954038	0.0167835
2600.95	-0.000839594	0.0170699
2610.95	-0.00104941	0.0168569
2620.95	-0.000896816	0.0167626
2630.95	-0.000896816	0.0171947
2640.95	-0.00091589	0.0167111
2650.95	-0.000839594	0.0169155
2660.95	-0.000858668	0.0167889
2670.95	-0.000934964	0.0166172
2680.95	-0.000954038	0.0171514
2690.95	-0.000877742	0.0165518
2700.95	-0.00101126	0.0166339
2710.95	-0.000839594	0.0166321
2720.95	-0.000801446	0.0164984
2730.95	-0.000954038	0.0169547
2740.95	-0.000896816	0.0163329
2750.95	-0.00091589	0.0166027
2760.95	-0.000839594	0.0162236
2770.95	-0.000839594	0.0164856
2780.95	-0.000763297	0.0167845
2790.95	-0.000877742	0.0163035
2800.95	-0.000839594	0.0164219
2810.95	-0.000763297	0.0161288
2820.95	-0.000992187	0.0163191
2830.95	-0.00103033	0.0166448
2840.95	-0.000858668	0.0163814
2850.95	-0.000858668	0.0164261
2860.95	-0.000839594	0.0161542
2870.95	-0.00082052	0.0161431
2880.95	-0.000744223	0.0167991
2890.95	-0.00103033	0.0162012
2900.95	-0.000896816	0.0162708
2910.95	-0.00091589	0.0160873
2920.95	-0.000839594	0.0162575
2930.95	-0.000934964	0.0166997
2940.95	-0.000934964	0.0161937
2950.95	-0.000782372	0.0163227
2960.95	-0.000934964	0.0160192
2970.95	-0.000801446	0.0161349
2980.95	-0.000973113	0.0165124
2990.95	-0.000801446	0.0160811
3000.95	-0.000801446	0.0163813
3010.95	-0.000839594	0.0159692
3020.95	-0.000839594	0.0162414
3030.95	-0.000801446	0.0164705
3040.95	-0.000973113	0.0159839
3050.95	-0.00091589	0.016234
3060.95	-0.00091589	0.0159426
3070.95	-0.000992187	0.0160824
3080.95	-0.000877742	0.0164738
3090.95	-0.000858668	0.0161282
3100.95	-0.00104941	0.0162627
3110.95	-0.00091589	0.0159689
3120.95	-0.000839594	0.0161991
3130.95	-0.000839594	0.0165031
3140.95	-0.000763297	0.0162143
3150.95	-0.000877742	0.0164376
3160.95	-0.00091589	0.0159425
3170.95	-0.00101126	0.0161135
3180.95	-0.000896816	0.0164106
3190.95	-0.00082052	0.0160762
3200.95	-0.000896816	0.0164225
3210.95	-0.000877742	0.015988
3220.95	-0.000896816	0.016071
3230.95	-0.000973113	0.0161072
3240.95	-0.000954038	0.0158948
3250.95	-0.000763297	0.0164409
3260.95	-0.000801446	0.0160133
3270.95	-0.000954038	0.016156
3280.95	-0.000801446	0.0162299
3290.95	-0.000954038	0.0161332
3300.95	-0.000725149	0.016388
3310.95	-0.000877742	0.0158208
3320.95	-0.000896816	0.0160243
3330.95	-0.000858668	0.0162323
3340.95	-0.00091589	0.0160115
3350.95	-0.000839594	0.0163854
3360.95	-0.000934964	0.0158979
3370.95	-0.000896816	0.01607
3380.95	-0.000896816	0.0160179
3390.95	-0.000763297	0.0159631
3400.95	-0.00091589	0.016361
3410.95	-0.000877742	0.0158877
3420.95	-0.00082052	0.0158992
3430.95	-0.000858668	0.0158733
3440.95	-0.000896816	0.0158574
3450.95	-0.000839594	0.0160749
3460.95	-0.000934964	0.0156682
3470.95	-0.000858668	0.015766
3480.95	-0.00108756	0.0156206
3490.95	-0.000934964	0.0156968
3500.95	-0.00091589	0.016148
3510.95	-0.000839594	0.0156354
3520.95	-0.000934964	0.0157255
3530.95	-0.00091589	0.0155649
3540.95	-0.000877742	0.0156045
3550.95	-0.00106848	0.01607
3560.95	-0.00091589	0.0155953
3570.95	-0.000973113	0.0157221
3580.95	-0.00091589	0.0156107
3590.95	-0.000839594	0.0156614
3600.95	-0.000934964	0.0161362
3610.95	-0.000973113	0.0155427
3620.95	-0.000801446	0.0157755
3630.95	-0.000801446	0.0154784
3640.95	-0.000858668	0.0156352
3650.95	-0.000877742	0.0158253
3660.95	-0.00082052	0.0154265
3670.95	-0.000839594	0.0155058
3680.95	-0.00091589	0.0154454
3690.95	-0.000877742	0.0154219
3700.95	-0.000973113	0.0157711
3710.95	-0.00091589	0.0152945
3720.95	-0.000896816	0.0155556
3730.95	-0.000973113	0.0153394
3740.95	-0.000801446	0.0154523
3750.95	-0.000896816	0.015741
3760.95	-0.000992187	0.0153847
3770.95	-0.000973113	0.0156578
3780.95	-0.000839594	0.0155605
3790.95	-0.000896816	0.0155991
3800.95	-0.000858668	0.0157629
3810.95	-0.000934964	0.0154441
3820.95	-0.00101126	0.0155626
3830.95	-0.000801446	0.0153596
3840.95	-0.000763297	0.0155091
3850.95	-0.000896816	0.0156206
3860.95	-0.000877742	0.0152688
3870.95	-0.000858668	0.0154605
3880.95	-0.000706075	0.0152312
3890.95	-0.000839594	0.0153899
3900.95	-0.000954038	0.0156033
3910.95	-0.00091589	0.0152853
3920.95	-0.000801446	0.015419
3930.95	-0.000839594	0.0150112
3940.95	-0.00091589	0.0152413
3950.95	-0.000801446	0.0154521
3960.95	-0.000896816	0.0150805
3970.95	-0.000839594	0.0153384
3980.95	-0.000839594	0.0148667
3990.95	-0.000877742	0.0150374
4000.95	-0.000782372	0.015327
4010.95	-0.00082052	0.0150911
4020.95	-0.000858668	0.0152349
4030.95	-0.000877742	0.0149045
4040.95	-0.00082052	0.0150029
4050.95	-0.000858668	0.0151212
4060.95	-0.00091589	0.0149535
4070.95	-0.000934964	0.0152805
4080.95	-0.000934964	0.0149031
4090.95	-0.000858668	0.0149905
4100.95	-0.000896816	0.0151266
4110.95	-0.00108756	0.0149269
4120.95	-0.000858668	0.0152265
4130.95	-0.00091589	0.0147914
4140.95	-0.000858668	0.0149773
4150.95	-0.000954038	0.0151957
4160.95	-0.000782372	0.014876
4170.95	-0.000992187	0.0150485
4180.95	-0.000973113	0.014798
4190.95	-0.00082052	0.0149994
4200.95	-0.000839594	0.015066
4210.95	-0.00091589	0.0147715
4220.95	-0.00091589	0.0152462
4230.95	-0.000782372	0.0147767
4240.95	-0.000896816	0.015084
4250.95	-0.000801446	0.0150178
4260.95	-0.000801446	0.0148645
4270.95	-0.000839594	0.0151921
4280.95	-0.00082052	0.0147725
4290.95	-0.000839594	0.0148547
4300.95	-0.000839594	0.0148111
4310.95	-0.00112571	0.014641
4320.95	-0.000934964	0.015137
4330.95	-0.000973113	0.0147028
4340.95	-0.000896816	0.0148475
4350.95	-0.000954038	0.014718
4360.95	-0.00082052	0.0147232
4370.95	-0.00091589	0.015125
4380.95	-0.000934964	0.0146351
4390.95	-0.00082052	0.0148391
4400.95	-0.000725149	0.0145784
4410.95	-0.00104941	0.0145767
4420.95	-0.000744223	0.0151916
4430.95	-0.00091589	0.0145962
4440.95	-0.000801446	0.0147566
4450.95	-0.00091589	0.0146509
4460.95	-0.000858668	0.0145223
4470.95	-0.000954038	0.0149789
4480.95	-0.00091589	0.0143999
4490.95	-0.000801446	0.014584
4500.95	-0.000763297	0.0144581
4510.95	-0.00091589	0.0145441
4520.95	-0.000896816	0.0148411
4530.95	-0.000801446	0.0144612
4540.95	-0.000954038	0.0144316
4550.95	-0.00101126	0.0144259
4560.95	-0.000896816	0.0144283
4570.95	-0.000839594	0.0147596
4580.95	-0.000992187	0.014318
4590.95	-0.000839594	0.0143039
4600.95	-0.000934964	0.0143277
4610.95	-0.000725149	0.0143282
4620.95	-0.00082052	0.0146737
4630.95	-0.000954038	0.0140644
4640.95	-0.000934964	0.0141563
4650.95	-0.00091589	0.0140487
4660.95	-0.000896816	0.0141076
4670.95	-0.00082052	0.0144745
4680.95	-0.000896816	0.0140781
4690.95	-0.000973113	0.0140446
4700.95	-0.000839594	0.0139267
4710.95	-0.000858668	0.0140663
4720.95	-0.000934964	0.0143602
4730.95	-0.00106848	0.0140719
4740.95	-0.000877742	0.0139554
4750.95	-0.000858668	0.0136857
4760.95	-0.000858668	0.013872
4770.95	-0.000973113	0.0140997
4780.95	-0.00082052	0.0136657
4790.95	-0.000725149	0.0140083
4800.95	-0.000801446	0.0136047
4810.95	-0.000782372	0.0137422
4820.95	-0.000992187	0.0139997
4830.95	-0.000782372	0.0137067
4840.95	-0.000725149	0.0138575
4850.95	-0.000954038	0.013435
4860.95	-0.000858668	0.0136778
4870.95	-0.000896816	0.0139656
4880.95	-0.000934964	0.0136992
4890.95	-0.000858668	0.0138339
4900.95	-0.000934964	0.0135042
4910.95	-0.000877742	0.0136142
4920.95	-0.00082052	0.0139681
4930.95	-0.000858668	0.0135667
4940.95	-0.000896816	0.0137619
4950.95	-0.00103033	0.0136171
4960.95	-0.00082052	0.013632
4970.95	-0.000839594	0.0138028
4980.95	-0.000877742	0.0136984
4990.95	-0.000992187	0.0137776
5000.95	-0.000973113	0.0135186
5010.95	-0.000877742	0.013616
5020.95	-0.000992187	0.0138698
5030.95	-0.000877742	0.0135619
5040.95	-0.000877742	0.0138103
5050.95	-0.000934964	0.0134917
5060.95	-0.000839594	0.0136246
5070.95	-0.000839594	0.0136806
5080.95	-0.000934964	0.0134749
5090.95	-0.000934964	0.0136494
5100.95	-0.00103033	0.0132878
5110.95	-0.000877742	0.0134199
5120.95	-0.000973113	0.0135333
5130.95	-0.000896816	0.0133277
5140.95	-0.000744223	0.0137029
5150.95	-0.000877742	0.0131588
5160.95	-0.000934964	0.0133561
5170.95	-0.000858668	0.0133008
5180.95	-0.00091589	0.0131609
5190.95	-0.00091589	0.0132968
5200.95	-0.000725149	0.0133508
5210.95	-0.000858668	0.0132614
5220.95	-0.000992187	0.0133155
5230.95	-0.000839594	0.0130698
5240.95	-0.000877742	0.0134667
5250.95	-0.000992187	0.0131075
5260.95	-0.000858668	0.0131359
5270.95	-0.000877742	0.0132906
5280.95	-0.000782372	0.0132493
5290.95	-0.000896816	0.0134088
5300.95	-0.000934964	0.013009
5310.95	-0.000839594	0.0131552
5320.95	-0.00103033	0.0131322
5330.95	-0.000877742	0.0132535
5340.95	-0.00082052	0.0134649
5350.95	-0.000858668	0.013163
5360.95	-0.000839594	0.0132002
5370.95	-0.000839594	0.0130347
5380.95	-0.000763297	0.0132261
5390.95	-0.00091589	0.0135207
5400.95	-0.000934964	0.0130295
5410.95	-0.000992187	0.0131369
5420.95	-0.000877742	0.0131381
5430.95	-0.000858668	0.0131381
5440.95	-0.000896816	0.0134879
5450.95	-0.000973113	0.0130111
5460.95	-0.00091589	0.0131457
5470.95	-0.000934964	0.0131403
5480.95	-0.00101126	0.0130361
5490.95	-0.000839594	0.0133458
5500.95	-0.00082052	0.013014
5510.95	-0.000839594	0.0130181
5520.95	-0.000896816	0.0128685
5530.95	-0.000858668	0.0130603
5540.95	-0.000858668	0.0134024
5550.95	-0.000782372	0.0129055
5560.95	-0.00082052	0.0132264
5570.95	-0.00091589	0.0130893
5580.95	-0.000896816	0.0128984
5590.95	-0.000992187	0.0133323
5600.95	-0.000782372	0.0129137
5610.95	-0.000896816	0.0129243
5620.95	-0.000973113	0.0129504
5630.95	-0.000877742	0.0129191
5640.95	-0.000877742	0.0131251
5650.95	-0.000801446	0.012985
5660.95	-0.000973113	0.0130146
5670.95	-0.00104941	0.0128627
5680.95	-0.000839594	0.0129034
5690.95	-0.000973113	0.0132576
5700.95	-0.000992187	0.0127867
5710.95	-0.000934964	0.0130772
5720.95	-0.00082052	0.0128854
5730.95	-0.00082052	0.0128375
5740.95	-0.000973113	0.0131788
5750.95	-0.000801446	0.0128325
5760.95	-0.00106848	0.0129132
5770.95	-0.000877742	0.0126791
5780.95	-0.000992187	0.012748
5790.95	-0.000877742	0.0131526
5800.95	-0.000782372	0.0127908
5810.95	-0.00091589	0.0128617
5820.95	-0.000992187	0.0126841
5830.95	-0.000954038	0.0127012
5840.95	-0.000992187	0.0130529
5850.95	-0.000896816	0.0128246
5860.95	-0.000839594	0.0128188
5870.95	-0.000782372	0.012651
5880.95	-0.000896816	0.0128239
5890.95	-0.000954038	0.0130237
5900.95	-0.000934964	0.0129037
5910.95	-0.000839594	0.0127873
5920.95	-0.00091589	0.0125887
5930.95	-0.000744223	0.0126338
5940.95	-0.000954038	0.0128229
5950.95	-0.000877742	0.0127682
5960.95	-0.000744223	0.012748
5970.95	-0.000858668	0.0122889
5980.95	-0.000782372	0.0124921
5990.95	-0.000992187	0.0129368
6000.95	-0.000934964	0.0126209
6010.95	-0.00082052	0.012694
6020.95	-0.000877742	0.0124484
6030.95	-0.00091589	0.0126116
6040.95	-0.000858668	0.0125441
6050.95	-0.000896816	0.0125252
6060.95	-0.000973113	0.0126716
6070.95	-0.00106848	0.0124249
6080.95	-0.000839594	0.0124487
6090.95	-0.00082052	0.0123943
6100.95	-0.000877742	0.0123712
6110.95	-0.000954038	0.012772
6120.95	-0.000896816	0.0123031
6130.95	-0.000954038	0.0121978
6140.95	-0.000839594	0.0124426
6150.95	-0.000763297	0.012253
6160.95	-0.00082052	0.0124385
6170.95	-0.00082052	0.0121512
6180.95	-0.000858668	0.0121875
6190.95	-0.000896816	0.0122266
6200.95	-0.000934964	0.0121332
6210.95	-0.000877742	0.0124683
6220.95	-0.00101126	0.0121322
6230.95	-0.000954038	0.012052
6240.95	-0.00103033	0.0122636
6250.95	-0.000954038	0.0121651
6260.95	-0.000763297	0.0123097
6270.95	-0.00091589	0.0119955
6280.95	-0.00091589	0.0121113
6290.95	-0.000763297	0.0120459
6300.95	-0.000992187	0.0120571
6310.95	-0.000877742	0.0123201
6320.95	-0.000896816	0.0120181
6330.95	-0.000934964	0.0120099
6340.95	-0.000839594	0.0120866
6350.95	-0.000954038	0.0120887
6360.95	-0.000801446	0.0123999
6370.95	-0.000934964	0.0120188
6380.95	-0.000973113	0.012061
6390.95	-0.000858668	0.0119643
6400.95	-0.00091589	0.0120459
6410.95	-0.00101126	0.0123447
6420.95	-0.000877742	0.0119288
6430.95	-0.000954038	0.0119925
6440.95	-0.00101126	0.0119738
6450.95	-0.000934964	0.0119607
6460.95	-0.000877742	0.0123626
6470.95	-0.00082052	0.0119823
6480.95	-0.000934964	0.0120127
6490.95	-0.000896816	0.0119198
6500.95	-0.000839594	0.0119347
6510.95	-0.00091589	0.0122664
6520.95	-0.00104941	0.0118931
6530.95	-0.000954038	0.0119471
6540.95	-0.000725149	0.0118827
6550.95	-0.00103033	0.0121064
6560.95	-0.00091589	0.0120962
6570.95	-0.00091589	0.0118395
6580.95	-0.000973113	0.0118946
6590.95	-0.000839594	0.0117266
6600.95	-0.000934964	0.011807
6610.95	-0.000896816	0.0122551
6620.95	-0.000973113	0.0119298
6630.95	-0.000954038	0.0117823
6640.95	-0.000858668	0.0118305
6650.95	-0.000934964	0.0118431
6660.95	-0.00091589	0.0120856
6670.95	-0.00091589	0.0117506
6680.95	-0.000954038	0.0120292
6690.95	-0.00101126	0.0117007
6700.95	-0.000877742	0.0117416
6710.95	-0.000801446	0.012051
6720.95	-0.000954038	0.0117848
6730.95	-0.000839594	0.0119198
6740.95	-0.000934964	0.0116099
6750.95	-0.00101126	0.0117806
6760.95	-0.000896816	0.0120833
6770.95	-0.000858668	0.011713
6780.95	-0.00082052	0.0117971
6790.95	-0.000896816	0.0116081
6800.95	-0.000896816	0.0117451
6810.95	-0.00082052	0.0118827
6820.95	-0.000896816	0.0116576
6830.95	-0.000839594	0.011875
6840.95	-0.000896816	0.0115911
6850.95	-0.000934964	0.0116803
6860.95	-0.000801446	0.011801
6870.95	-0.00082052	0.0116673
6880.95	-0.000934964	0.0117922
6890.95	-0.000934964	0.0115901
6900.95	-0.000744223	0.0115452
6910.95	-0.000954038	0.0117329
6920.95	-0.000896816	0.0116601
6930.95	-0.00082052	0.0117656
6940.95	-0.000801446	0.0114353
6950.95	-0.000954038	0.0115644
6960.95	-0.000801446	0.0115969
6970.95	-0.000954038	0.0114233
6980.95	-0.000744223	0.0117867
6990.95	-0.000934964	0.0114575
7000.95	-0.000954038	0.011493
7010.95	-0.000954038	0.011602
7020.95	-0.000725149	0.0114928
7030.95	-0.000973113	0.011771
7040.95	-0.000973113	0.0114419
7050.95	-0.000801446	0.0114635
7060.95	-0.000801446	0.0115601
7070.95	-0.000858668	0.0114336
7080.95	-0.000973113	0.0116013
7090.95	-0.00101126	0.01131
7100.95	-0.000896816	0.0113887
7110.95	-0.000858668	0.0114104
7120.95	-0.000877742	0.0114531
7130.95	-0.000877742	0.0116501
7140.95	-0.00103033	0.0112053
7150.95	-0.000858668	0.0113423
7160.95	-0.000782372	0.0113459
7170.95	-0.00101126	0.0113021
7180.95	-0.000877742	0.0116078
7190.95	-0.00103033	0.0112752
7200.95	-0.000839594	0.0113579
7210.95	-0.000934964	0.011269
7220.95	-0.000973113	0.0113392
7230.95	-0.000954038	0.0116131
7240.95	-0.000744223	0.0112133
7250.95	-0.000877742	0.0111993
7260.95	-0.000877742	0.0111877
7270.95	-0.000858668	0.0112521
7280.95	-0.00101126	0.0115241
7290.95	-0.000992187	0.0111721
7300.95	-0.000801446	0.0113197
7310.95	-0.000934964	0.0112203
7320.95	-0.00091589	0.0112594
7330.95	-0.00101126	0.0115499
7340.95	-0.000954038	0.0111162
7350.95	-0.000858668	0.0111706
7360.95	-0.00082052	0.0111926
7370.95	-0.000763297	0.011066
7380.95	-0.000801446	0.0114908
7390.95	-0.000763297	0.0111175
7400.95	-0.000954038	0.0112319
7410.95	-0.000763297	0.0110254
7420.95	-0.00082052	0.011093
7430.95	-0.000954038	0.011278
7440.95	-0.000839594	0.0109406
7450.95	-0.00082052	0.0110957
7460.95	-0.000877742	0.0110552
7470.95	-0.000954038	0.0110288
7480.95	-0.000896816	0.0112607
7490.95	-0.00082052	0.0107948
7500.95	-0.000839594	0.0110493
7510.95	-0.000934964	0.0109986
7520.95	-0.000839594	0.0109867
7530.95	-0.000973113	0.0111928
7540.95	-0.00101126	0.010993
7550.95	-0.000839594	0.0110675
7560.95	-0.000896816	0.0108526
7570.95	-0.00091589	0.0108568
7580.95	-0.000706075	0.0112116
7590.95	-0.000763297	0.0108479
7600.95	-0.000896816	0.0109141
7610.95	-0.000839594	0.0107542
7620.95	-0.000934964	0.0108456
7630.95	-0.000858668	0.011069
7640.95	-0.000973113	0.0108569
7650.95	-0.00091589	0.0108162
7660.95	-0.000858668	0.0107669
7670.95	-0.00091589	0.0108459
7680.95	-0.00091589	0.0111016
7690.95	-0.00091589	0.0107566
7700.95	-0.000858668	0.0109142
7710.95	-0.000954038	0.0106769
7720.95	-0.000934964	0.0107501
7730.95	-0.000858668	0.0110132
7740.95	-0.000801446	0.0107144
7750.95	-0.000877742	0.0109339
7760.95	-0.000839594	0.0106039
7770.95	-0.000896816	0.0107747
7780.95	-0.000992187	0.0108261
7790.95	-0.000896816	0.010649
7800.95	-0.000954038	0.0109393
7810.95	-0.00082052	0.0105432
7820.95	-0.000877742	0.010604
7830.95	-0.000896816	0.010919
7840.95	-0.00091589	0.0107101
7850.95	-0.000839594	0.0108348
7860.95	-0.000973113	0.0104717
7870.95	-0.00101126	0.0106525
7880.95	-0.000782372	0.0107932
7890.95	-0.00103033	0.0104924
7900.95	-0.000934964	0.0107943
7910.95	-0.000954038	0.0105455
7920.95	-0.000858668	0.0106308
7930.95	-0.000992187	0.0106272
7940.95	-0.000954038	0.0105079
7950.95	-0.000839594	0.0107247
7960.95	-0.000877742	0.0105116
7970.95	-0.00082052	0.0106951
7980.95	-0.00103033	0.0105751
7990.95	-0.000992187	0.0105361
8000.95	-0.000896816	0.0105808
8010.95	-0.000877742	0.0104496
8020.95	-0.000934964	0.0104654
8030.95	-0.000896816	0.0104788
8040.95	-0.00082052	0.0105585
8050.95	-0.00091589	0.0107002
8060.95	-0.00082052	0.0103891
8070.95	-0.000934964	0.0105133
8080.95	-0.000954038	0.0105069
8090.95	-0.000896816	0.0104803
8100.95	-0.000992187	0.0106836
8110.95	-0.000763297	0.0103672
8120.95	-0.000896816	0.0104095
8130.95	-0.00091589	0.0103565
8140.95	-0.000896816	0.0103657
8150.95	-0.000954038	0.010722
8160.95	-0.00091589	0.010273
8170.95	-0.00101126	0.0102995
8180.95	-0.000877742	0.0102551
8190.95	-0.000725149	0.0102665
8200.95	-0.000954038	0.0104908
8210.95	-0.00091589	0.0103481
8220.95	-0.000877742	0.0102241
8230.95	-0.000801446	0.0102743
8240.95	-0.000992187	0.0102867
8250.95	-0.00104941	0.0105517
8260.95	-0.000706075	0.0102029
8270.95	-0.000763297	0.0102368
8280.95	-0.00082052	0.0102218
8290.95	-0.00091589	0.0102659
8300.95	-0.000896816	0.0104604
8310.95	-0.00082052	0.0100929
8320.95	-0.000896816	0.0101783
8330.95	-0.000992187	0.0100793
8340.95	-0.00091589	0.0101211
8350.95	-0.000858668	0.0103505
8360.95	-0.000858668	0.0102173
8370.95	-0.00082052	0.0103552
8380.95	-0.00101126	0.0101727
8390.95	-0.00106848	0.0102118
8400.95	-0.00103033	0.0105185
8410.95	-0.000801446	0.0102664
8420.95	-0.000973113	0.0102046
8430.95	-0.000992187	0.0102
8440.95	-0.000896816	0.0102757
8450.95	-0.000896816	0.0104649
8460.95	-0.000896816	0.0101344
8470.95	-0.000973113	0.0102345
8480.95	-0.00091589	0.00997507
8490.95	-0.000954038	0.0100522
8500.95	-0.000877742	0.0103145
8510.95	-0.000954038	0.010101
8520.95	-0.000839594	0.0101283
8530.95	-0.000992187	0.0100384
8540.95	-0.000934964	0.0101109
8550.95	-0.000839594	0.0102547
8560.95	-0.000954038	0.0100417
8570.95	-0.000858668	0.0100584
8580.95	-0.000877742	0.0098705
8590.95	-0.00082052	0.0100603
8600.95	-0.000934964	0.0101357
8610.95	-0.00091589	0.00994809
8620.95	-0.000801446	0.0100893
8630.95	-0.000858668	0.00982052
8640.95	-0.000858668	0.00987652
8650.95	-0.000896816	0.0100947
8660.95	-0.000954038	0.00995939
8670.95	-0.00082052	0.0099699
8680.95	-0.000954038	0.00990818
8690.95	-0.000954038	0.00989062
8700.95	-0.00091589	0.00989086
8710.95	-0.000801446	0.00986945
8720.95	-0.000877742	0.00998227
8730.95	-0.000954038	0.00976777
8740.95	-0.000877742	0.00970316
8750.95	-0.000896816	0.0101092
8760.95	-0.00091589	0.00978218
8770.95	-0.000954038	0.0099169
8780.95	-0.000973113	0.00981827
8790.95	-0.000992187	0.00969548
8800.95	-0.000839594	0.00983344
8810.95	-0.000877742	0.0097227
8820.95	-0.00091589	0.00982827
8830.95	-0.000782372	0.00967867
8840.95	-0.00101126	0.00959345
8850.95	-0.000954038	0.00983092
8860.95	-0.000934964	0.0096754
8870.95	-0.00101126	0.00981153
8880.95	-0.000744223	0.00953083
8890.95	-0.000934964	0.00955866
8900.95	-0.000706075	0.00978042
8910.95	-0.000896816	0.00961229
8920.95	-0.000954038	0.00976893
8930.95	-0.000954038	0.00941955
8940.95	-0.000896816	0.00942589
8950.95	-0.000934964	0.00954394
8960.95	-0.000896816	0.00957126
8970.95	-0.000934964	0.00970596
8980.95	-0.000954038	0.00929444
8990.95	-0.000954038	0.00953574
9000.95	-0.000992187	0.00960718
9010.95	-0.000954038	0.00942528
9020.95	-0.000839594	0.00965017
9030.95	-0.000992187	0.00933476
9040.95	-0.000782372	0.00939575
9050.95	-0.00082052	0.00940568
9060.95	-0.00110663	0.0092825
9070.95	-0.00082052	0.00969266
9080.95	-0.000782372	0.00922983
9090.95	-0.00082052	0.00929076
9100.95	-0.000839594	0.00933289
9110.95	-0.000858668	0.00933479
9120.95	-0.000877742	0.00944515
9130.95	-0.00103033	0.00920187
9140.95	-0.00091589	0.00927443
9150.95	-0.000992187	0.00922244
9160.95	-0.000954038	0.0092446
9170.95	-0.000896816	0.00942611
9180.95	-0.000973113	0.00916636
9190.95	-0.000839594	0.00911758
9200.95	-0.00091589	0.00914643
9210.95	-0.000858668	0.0091202
9220.95	-0.00082052	0.00936893
9230.95	-0.000877742	0.00913825
9240.95	-0.000782372	0.00919006
9250.95	-0.000801446	0.00900149
9260.95	-0.000763297	0.00917719
9270.95	-0.000877742	0.00941448
9280.95	-0.000896816	0.00914373
9290.95	-0.000896816	0.0091108
9300.95	-0.000896816	0.00907181
9310.95	-0.000725149	0.00915782
9320.95	-0.000896816	0.00921126
9330.95	-0.000782372	0.00903149
9340.95	-0.000763297	0.00906112
9350.95	-0.000896816	0.00902081
9360.95	-0.000744223	0.00897771
9370.95	-0.000858668	0.00928473
9380.95	-0.000973113	0.00902566
9390.95	-0.000877742	0.00909014
9400.95	-0.000858668	0.00876583
9410.95	-0.000839594	0.0089309
9420.95	-0.000877742	0.00918918
9430.95	-0.000763297	0.00872806
9440.95	-0.000877742	0.00894931
9450.95	-0.000992187	0.0087371
9460.95	-0.00082052	0.00884925
9470.95	-0.000877742	0.00911426
9480.95	-0.000858668	0.00880905
9490.95	-0.000954038	0.00889163
9500.95	-0.00091589	0.00893299
9510.95	-0.000954038	0.00878002
9520.95	-0.000954038	0.00903561
9530.95	-0.00091589	0.00881207
9540.95	-0.00091589	0.00882387
9550.95	-0.000992187	0.00866881
9560.95	-0.00082052	0.00871825
9570.95	-0.00091589	0.00893616
9580.95	-0.00091589	0.00881151
9590.95	-0.000934964	0.00869337
9600.95	-0.000858668	0.00860822
9610.95	-0.000801446	0.00864483
9620.95	-0.00091589	0.0088273
9630.95	-0.000992187	0.00869327
9640.95	-0.000896816	0.00863205
9650.95	-0.000954038	0.00856708
9660.95	-0.00091589	0.00853635
9670.95	-0.000896816	0.00871387
9680.95	-0.000877742	0.00859175
9690.95	-0.00091589	0.00871984
9700.95	-0.00101126	0.00836924
9710.95	-0.000934964	0.00862095
9720.95	-0.000896816	0.00865239
9730.95	-0.000954038	0.00845404
9740.95	-0.000877742	0.00869464
9750.95	-0.00082052	0.00855774
9760.95	-0.000782372	0.00852752
9770.95	-0.00082052	0.008637
9780.95	-0.000896816	0.00857742
9790.95	-0.000973113	0.00864729
9800.95	-0.000858668	0.00846122
9810.95	-0.000839594	0.00847146
9820.95	-0.000954038	0.008619
9830.95	-0.000858668	0.00851845
9840.95	-0.000896816	0.00857586
9850.95	-0.00082052	0.0084686
9860.95	-0.000992187	0.00848601
9870.95	-0.000896816	0.00845019
9880.95	-0.000877742	0.00841008
9890.95	-0.000839594	0.00881387
9900.95	-0.000934964	0.00833553
9910.95	-0.000744223	0.00843793
9920.95	-0.000839594	0.0085023
9930.95	-0.000858668	0.00840457
9940.95	-0.00091589	0.00869722
9950.95	-0.00082052	0.00836389
9960.95	-0.000877742	0.00841748
9970.95	-0.000973113	0.00834377
9980.95	-0.000934964	0.00844059
9990.95	-0.000973113	0.00865688
10001	-0.000839594	0.00834095
10011	-0.000858668	0.00843617
10021	-0.000858668	0.00843439
10031	-0.000992187	0.00838365
10041	-0.00091589	0.00864308
10051	-0.000610705	0.00830454
10061	-0.000896816	0.00842905
10071	-0.000934964	0.00830879
10081	-0.000877742	0.00826154
10091	-0.000934964	0.00853513
10101	-0.000801446	0.00833417
10111	-0.000934964	0.00832648
10121	-0.000973113	0.00829606
10131	-0.00082052	0.00828236
10141	-0.000667927	0.00860673
10151	-0.00106848	0.00821359
10161	-0.000896816	0.00829713
10171	-0.000877742	0.00831168
10181	-0.000763297	0.0082057
10191	-0.00108756	0.00855332
10201	-0.000992187	0.00823994
10211	-0.000782372	0.00823352
10221	-0.00091589	0.00825006
10231	-0.000877742	0.00832763
10241	-0.000896816	0.00855639
10251	-0.000687001	0.00829683
10261	-0.00082052	0.00824367
10271	-0.000858668	0.00826382
10281	-0.000973113	0.00817666
10291	-0.00091589	0.00849481
10301	-0.00091589	0.008187
10311	-0.000896816	0.00827503
10321	-0.000839594	0.0082773
10331	-0.000858668	0.00819236
10341	-0.000896816	0.00838647
10351	-0.000934964	0.00820287
10361	-0.000858668	0.00811131
10371	-0.000954038	0.0081822
10381	-0.00082052	0.00822226
10391	-0.000896816	0.00842027
10401	-0.000896816	0.00813894
10411	-0.000896816	0.00826998
10421	-0.00101126	0.00809879
10431	-0.00101126	0.00812244
10441	-0.000839594	0.00835963
10451	-0.000896816	0.00811898
10461	-0.000801446	0.0081545
10471	-0.000896816	0.00800652
10481	-0.000839594	0.00808986
10491	-0.000877742	0.00818155
10501	-0.000877742	0.00807427
10511	-0.000934964	0.00814022
10521	-0.00104941	0.00799985
10531	-0.000973113	0.00800507
10541	-0.000934964	0.00820616
10551	-0.00103033	0.00804879
10561	-0.000896816	0.00810044
10571	-0.000896816	0.00797985
10581	-0.000782372	0.00804354
10591	-0.000973113	0.00812078
10601	-0.000973113	0.00796663
10611	-0.000858668	0.00814351
10621	-0.000858668	0.00790295
10631	-0.000992187	0.00791634
10641	-0.000992187	0.00802618
10651	-0.00082052	0.00799496
10661	-0.000839594	0.00817729
10671	-0.000896816	0.00790027
10681	-0.000858668	0.00793243
10691	-0.000934964	0.00797902
10701	-0.00082052	0.00802702
10711	-0.000896816	0.00813371
10721	-0.000839594	0.00799847
10731	-0.000896816	0.00788461
10741	-0.00091589	0.00799783
10751	-0.00082052	0.00805056
10761	-0.000934964	0.00809244
10771	-0.000992187	0.00792667
10781	-0.000896816	0.0079413
10791	-0.00082052	0.00792717
10801	-2.00085	-220.32
10811	-2.00068	-106.557
10821	-2.0007	-75.2988
10831	-2.00091	-54.8209
10841	-2.00085	-42.1212
10851	-2.00066	-33.6499
10861	-2.00074	-27.7863
10871	-2.00087	-23.5252
10881	-2.00089	-20.3716
10891	-2.00084	-17.9379
10901	-2.00078	-16.0663
10911	-2.00084	-14.5636
10921	-2.00084	-13.3541
10931	-2.0008	-12.3478
10941	-2.00093	-11.5011
10951	-2.0008	-10.778
10961	-2.00091	-10.1408
10971	-2.00078	-9.59724
10981	-2.00087	-9.15697
10991	-2.00084	-8.78028
11001	-2.00089	-8.41463
11011	-2.00085	-8.10283
11021	-2.00078	-7.8194
11031	-2.00085	-7.5738
11041	-2.00093	-7.34123
11051	-2.00091	-7.14923
11061	-2.00091	-7.00012
11071	-2.00097	-6.82016
11081	-2.00084	-6.67692
11091	-2.00089	-6.53205
11101	-2.00087	-6.40148
11111	-2.00082	-6.2914
11121	-2.00087	-6.1817
11131	-2.00093	-6.08744
11141	-2.00082	-5.99083
11151	-2.00089	-5.90939
11161	-2.0007	-5.84045
11171	-2.00095	-5.74948
11181	-2.00089	-5.70599
11191	-2.00091	-5.6571
11201	-2.00078	-5.5927
11211	-2.00087	-5.52542
11221	-2.00082	-5.48083
11231	-2.00074	-5.44324
11241	-2.00087	-5.39976
11251	-2.00087	-5.37135
11261	-2.00084	-5.31351
11271	-2.00085	-5.29154
11281	-2.0008	-5.26462
11291	-2.0008	-5.24262
11301	-2.00078	-5.21608
11311	-2.00087	-5.20134
11321	-2.00078	-5.1954
11331	-2.00093	-5.18454
11341	-2.00091	-5.13946
11351	-2.00085	-5.10428
11361	-2.00095	-5.09978
11371	-2.00093	-5.08733
11381	-2.00084	-5.0814
11391	-2.00078	-5.07442
11401	-2.00084	-5.05966
11411	-2.00089	-5.05754
11421	-2.00082	-5.05181
11431	-2.00095	-5.05144
11441	-2.00091	-5.05304
11451	-2.00082	-5.04174
11461	-2.00093	-5.04031
11471	-2.00093	-5.02668
11481	-2.0008	-5.02084
11491	-2.00097	-5.00508
11501	-2.00091	-5.00471
11511	-2.00087	-5.00112
11521	-2.00093	-4.99987
11531	-2.0008	-5.00149
11541	-2.0007	-4.97328
11551	-2.00085	-4.99746
11561	-2.00095	-5.00553
11571	-2.00089	-5.02148
11581	-2.00087	-5.03376
11591	-2.00085	-5.03227
11601	-2.0008	-4.99425
11611	-2.00099	-4.99985
11621	-2.00099	-5.00509
11631	-2.00084	-4.98512
11641	-2.00087	-5.00522
11651	-2.00093	-5.01302
11661	-2.00085	-5.00901
11671	-2.00095	-5.01112
11681	-2.00089	-5.01078
11691	-2.00087	-5.02173
11701	-0.000858668	278.505
11711	-0.00091589	9.29133
11721	-0.000992187	4.1337
11731	-0.000877742	2.76515
11741	-0.000782372	2.1326
11751	-0.000896816	1.79743
11761	-0.000954038	1.58113
11771	-0.000744223	1.43661
11781	-0.000801446	1.34356
11791	-0.000839594	1.25671
11801	-0.000839594	1.19942
11811	-0.00082052	1.14789
11821	-0.000877742	1.10626
11831	-0.000992187	1.07952
11841	-0.00091589	1.042
11851	-0.00091589	1.01975
11861	-0.000839594	0.993063
11871	-0.000934964	0.971004
11881	-0.000877742	0.957174
11891	-0.000954038	0.932547
11901	-0.000858668	0.918416
11911	-0.000934964	0.899064
11921	-0.000877742	0.88304
11931	-0.000954038	0.873371
11941	-0.000858668	0.854393
11951	-0.000687001	0.843805
11961	-0.000896816	0.828227
11971	-0.000839594	0.81565
11981	-0.000934964	0.807379
11991	-0.000954038	0.791943
12001	-0.00091589	0.783945
12011	-0.000954038	0.770257
12021	-0.000801446	0.759286
12031	-0.000839594	0.752449
12041	-0.000858668	0.738564
12051	-0.000954038	0.731999
12061	-0.000801446	0.719363
12071	-0.00082052	0.710267
12081	-0.000839594	0.703824
12091	-0.000801446	0.692101
12101	-0.000801446	0.685816
12111	-0.000896816	0.674496
12121	-0.000858668	0.665878
12131	-0.000782372	0.659494
12141	-0.000934964	0.64925
12151	-0.00082052	0.643457
12161	-0.000973113	0.632529
12171	-0.00082052	0.625312
12181	-0.00103033	0.619218
12191	-0.000858668	0.610065
12201	-0.00091589	0.605392
12211	-0.00082052	0.595401
12221	-0.000934964	0.58877
12231	-0.000839594	0.583619
12241	-0.000763297	0.575196
12251	-0.000934964	0.571138
12261	-0.000934964	0.562055
12271	-0.000896816	0.556035
12281	-0.000839594	0.550883
12291	-0.000858668	0.543361
12301	-0.000992187	0.53983
12311	-0.00091589	0.531391
12321	-0.000858668	0.525614
12331	-0.000877742	0.520735
12341	-0.000954038	0.514025
12351	-0.000801446	0.510964
12361	-0.000934964	0.502537
12371	-0.000973113	0.497631
12381	-0.000858668	0.49281
12391	-0.000934964	0.486746
12401	-0.000973113	0.481812
12411	-0.00104941	0.473902
12421	-0.00082052	0.469537
12431	-0.000877742	0.464872
12441	-0.000858668	0.459488
12451	-0.00082052	0.456921
12461	-0.000934964	0.4499
12471	-0.00104941	0.445746
12481	-0.000896816	0.441366
12491	-0.00103033	0.436579
12501	-0.000896816	0.434239
12511	-0.000934964	0.427815
12521	-0.000858668	0.424242
12531	-0.000934964	0.419972
12541	-0.000896816	0.415974
12551	-0.000973113	0.414163
12561	-0.000992187	0.408122
12571	-0.000896816	0.40513
12581	-0.000934964	0.401201
12591	-0.000992187	0.39749
12601	-0.000896816	0.396023
12611	-0.000801446	0.390439
12621	-0.000973113	0.387495
12631	-0.000934964	0.383655
12641	-0.000782372	0.380321
12651	-0.00091589	0.378899
12661	-0.00103033	0.373658
12671	-0.000877742	0.371445
12681	-0.00104941	0.368042
12691	-0.000706075	0.364939
12701	-0.000877742	0.363825
12711	-0.000839594	0.359022
12721	-0.000934964	0.356974
12731	-0.000782372	0.353618
12741	-0.000763297	0.351021
12751	-0.000744223	0.350134
12761	-0.00082052	0.345539
12771	-0.000992187	0.343575
12781	-0.000877742	0.340618
12791	-0.00101126	0.33823
12801	-0.000877742	0.337407
12811	-0.000973113	0.333418
12821	-0.000992187	0.332017
12831	-0.000954038	0.328812
12841	-0.000954038	0.32686
12851	-0.000934964	0.326059
12861	-0.000801446	0.322427
12871	-0.000934964	0.321141
12881	-0.000934964	0.317756
12891	-0.000973113	0.316207
12901	-0.000858668	0.315464
12911	-0.000877742	0.312154
12921	-0.000744223	0.311196
12931	-0.000954038	0.308054
12941	-0.000877742	0.30672
12951	-0.000954038	0.305671
12961	-0.000954038	0.302791
12971	-0.000934964	0.30179
12981	-0.00101126	0.298838
12991	-0.000954038	0.297206
13001	-0.000877742	0.296684
13011	-0.000973113	0.293754
13021	-0.00108756	0.293244
13031	-0.000934964	0.2904
13041	-0.00091589	0.288981
13051	-0.000858668	0.288176
13061	-0.000877742	0.285817
13071	-0.000877742	0.285152
13081	-0.000896816	0.282379
13091	-0.000934964	0.281113
13101	-0.000877742	0.280516
13111	-0.000610705	0.278164
13121	-0.000896816	0.277869
13131	-0.000877742	0.275059
13141	-0.000877742	0.273966
13151	-0.000954038	0.273266
13161	-0.000973113	0.271011
13171	-0.000839594	0.270908
13181	-0.00091589	0.268315
13191	-0.000896816	0.267239
13201	-0.00091589	0.266371
13211	-0.000934964	0.264367
13221	-0.00082052	0.264412
13231	-0.00082052	0.261727
13241	-0.000934964	0.260804
13251	-0.000934964	0.260049
13261	-0.000896816	0.258444
13271	-0.000954038	0.258458
13281	-0.000801446	0.255718
13291	-0.000839594	0.25481
13301	-0.000858668	0.253934
13311	-0.000782372	0.252695
13321	-0.00101126	0.252732
13331	-0.00082052	0.25011
13341	-0.000934964	0.24934
13351	-0.000877742	0.248469
13361	-0.000744223	0.247189
13371	-0.000954038	0.247537
13381	-0.000877742	0.244945
13391	-0.000896816	0.244308
13401	-0.000839594	0.243265
13411	-0.000877742	0.242267
13421	-0.000934964	0.242371
13431	-0.000973113	0.240062
13441	-0.000973113	0.239189
13451	-0.000858668	0.238356
13461	-0.00104941	0.237233
13471	-0.000801446	0.237522
13481	-0.000896816	0.23531
13491	-0.000954038	0.234794
13501	-0.00103033	0.233577
13511	-0.000839594	0.232746
13521	-0.00091589	0.233127
13531	-0.000858668	0.230871
13541	-0.000896816	0.23028
13551	-0.000725149	0.229408
13561	-0.000934964	0.228434
13571	-0.000896816	0.229072
13581	-0.000992187	0.226809
13591	-0.000801446	0.226233
13601	-0.000877742	0.225229
13611	-0.000858668	0.224445
13621	-0.000954038	0.22487
13631	-0.000877742	0.222966
13641	-0.00112571	0.222413
13651	-0.00082052	0.221139
13661	-0.000839594	0.220496
13671	-0.000992187	0.220983
13681	-0.000954038	0.219041
13691	-0.00091589	0.21886
13701	-0.00082052	0.217467
13711	-0.00091589	0.216882
13721	-0.00091589	0.217239
13731	-0.000877742	0.215619
13741	-0.000801446	0.215377
13751	-0.000973113	0.214128
13761	-0.00103033	0.213649
13771	-0.000973113	0.213848
13781	-0.00091589	0.212221
13791	-0.00082052	0.212074
13801	-0.000896816	0.21067
13811	-0.00091589	0.210244
13821	-0.000973113	0.210592
13831	-0.00091589	0.209021
13841	-0.00101126	0.208993
13851	-0.000954038	0.207493
13861	-0.000839594	0.207065
13871	-0.000839594	0.207418
13881	-0.000858668	0.205811
13891	-0.00103033	0.205947
13901	-0.000992187	0.204203
13911	-0.000858668	0.203908
13921	-0.000858668	0.204641
13931	-0.00091589	0.203004
13941	-0.000877742	0.203074
13951	-0.00082052	0.201608
13961	-0.00101126	0.201481
13971	-0.000934964	0.201694
13981	-0.000858668	0.200377
13991	-0.00091589	0.200322
14001	-0.000877742	0.199053
14011	-0.00082052	0.198669
14021	-0.000896816	0.198547
14031	-0.000992187	0.197446
14041	-0.000896816	0.197862
14051	-0.000973113	0.196316
14061	-0.000954038	0.195982
14071	-0.00101126	0.195823
14081	-0.000934964	0.195021
14091	-0.000839594	0.19512
14101	-0.000877742	0.193773
14111	-0.000877742	0.193413
14121	-0.000801446	0.193349
14131	-0.000896816	0.192642
14141	-0.000839594	0.192845
14151	-0.00082052	0.191338
14161	-0.00091589	0.191003
14171	-0.000934964	0.190949
14181	-0.000934964	0.189987
14191	-0.000858668	0.190559
14201	-0.00082052	0.189277
14211	-0.00103033	0.189065
14221	-0.00091589	0.188397
14231	-0.000896816	0.1878
14241	-0.000763297	0.188156
14251	-0.000877742	0.186805
14261	-0.000877742	0.186478
14271	-0.000973113	0.186157
14281	-0.000954038	0.18549
14291	-0.000782372	0.18599
14301	-0.000954038	0.184708
14311	-0.000839594	0.184282
14321	-0.00091589	0.183909
14331	-0.000877742	0.183359
14341	-0.000839594	0.183872
14351	-0.000839594	0.182447
14361	-0.00082052	0.182278
14371	-0.000839594	0.181716
14381	-0.000896816	0.181373
14391	-0.000877742	0.181747
14400	-0.000877742	0.185297