File: Data_32_Experiment(25)/CA_242_C01.txt
time/s	Ewe/V	<I>/mA
1	1.99925	417.108
40	1.9994	30.117
79	1.99931	31.8039
118	1.99935	26.3327
157	1.9994	21.8155
196	1.99939	18.9335
235	1.99935	16.8506
274	1.99944	15.3686
313	1.99948	14.1672
352	1.99935	13.0162
391	1.99931	12.0979
430	1.99927	11.3664
469	1.9994	10.8233
508	1.99927	10.2253
547	1.99939	9.73521
586	1.9994	9.30879
625	1.99935	9.06145
664	1.99948	8.74532
703	1.99944	8.50302
742	1.99948	8.29957
781	1.99929	8.22523
820	1.99931	8.10255
859	1.99939	7.98067
898	1.99948	7.88033
937	1.99939	7.87315
976	1.99933	7.88661
1015	1.99948	7.82494
1054	1.99929	7.8184
1093	1.99942	7.80745
1132	1.99954	7.87987
1171	1.99944	7.85803
1210	1.99919	7.87812
1249	1.99944	7.87734
1288	1.99939	7.98573
1327	1.99925	7.99324
1366	1.99939	7.99428
1405	1.99944	8.03565
1444	1.99946	8.10738
1483	1.99937	8.21272
1522	1.99927	8.17724
1561	1.99942	8.21069
1600	1.99933	8.26748
1639	1.99942	8.37684
1678	1.99939	8.40669
1717	1.99954	8.45822
1756	1.99942	8.45178
1795	1.99921	8.55052
1833.97	-0.000954038	-0.0320852
1872.97	-0.000954038	0.492836
1911.97	-0.00106848	0.313064
1950.97	-0.000877742	0.257454
1989.97	-0.000992187	0.245495
2028.97	-0.000877742	0.218881
2067.97	-0.000706075	0.200732
2106.97	-0.00091589	0.18633
2145.97	-0.00103033	0.196953
2184.97	-0.000992187	0.184669
2223.97	-0.000763297	0.172952
2262.97	-0.000934964	0.157216
2301.97	-0.000992187	0.160598
2340.97	-0.000973113	0.154264
2379.97	-0.00106848	0.143837
2418.97	-0.000934964	0.129062
2457.97	-0.000877742	0.126808
2496.97	-0.000896816	0.127268
2535.97	-0.000801446	0.11648
2574.97	-0.000954038	0.106828
2613.97	-0.000858668	0.0993492
2652.97	-0.00101126	0.106131
2691.97	-0.00104941	0.0979216
2730.97	-0.00103033	0.091558
2769.97	-0.000877742	0.0841681
2808.97	-0.000954038	0.0892991
2847.97	-0.00101126	0.0846743
2886.97	-0.000934964	0.0798663
2925.97	-0.000934964	0.073347
2964.97	-0.000934964	0.0756192
3003.97	-0.000973113	0.077304
3042.97	-0.000954038	0.0727469
3081.97	-0.000992187	0.0675923
3120.97	-0.000973113	0.0651904
3159.97	-0.000954038	0.0708024
3198.97	-0.000858668	0.0669023
3237.97	-0.00106848	0.0642695
3276.97	-0.000973113	0.0602307
3315.97	-0.000973113	0.0667668
3354.97	-0.000896816	0.0647392
3393.97	-0.00104941	0.0625894
3432.97	-0.000934964	0.0590363
3471.97	-0.000934964	0.0619594
3510.97	-0.000706075	0.0636585
3549.97	-0.000896816	0.0610887
3588.97	-0.000839594	0.0582848
3627.97	-0.000858668	0.0572668
3666.97	-0.000877742	0.0619982
3705.97	-0.000896816	0.0588213
3744.97	-0.000877742	0.0573366
3783.97	-0.00103033	0.0542631
3822.97	-0.000858668	0.0608829
3861.97	-0.000782372	0.0576139
3900.97	-0.000801446	0.0560987
3939.97	-0.000934964	0.0531269
3978.97	-0.000934964	0.0568017
4017.97	-0.000973113	0.057636
4056.97	-0.000973113	0.0554279
4095.97	-0.000934964	0.0525691
4134.97	-0.00103033	0.0525187
4173.97	-0.00082052	0.0556716
4212.97	-0.000858668	0.0529285
4251.97	-0.000973113	0.0513863
4290.97	-0.000839594	0.0490838
4329.97	-0.000801446	0.0539372
4368.97	-0.000992187	0.0509121
4407.97	-0.000896816	0.0500368
4446.97	-0.000973113	0.0472506
4485.97	-0.000973113	0.0511229
4524.97	-0.000992187	0.0503272
4563.97	-0.000992187	0.0500769
4602.97	-0.000973113	0.0477881
4641.97	-0.000877742	0.0482865
4680.97	-0.00091589	0.05045
4719.97	-0.000896816	0.0482292
4758.97	-0.00104941	0.047293
4797.97	-0.000934964	0.0455351
4836.97	-0.00103033	0.0498102
4875.97	-0.000744223	0.0470276
4914.97	-0.00091589	0.0466682
4953.97	-0.000973113	0.0444095
4992.97	-0.00104941	0.0478564
5031.97	-0.000992187	0.0465539
5070.97	-0.00091589	0.0457831
5109.97	-0.00101126	0.0437347
5148.97	-0.000763297	0.0450611
5187.97	-0.00091589	0.0465532
5226.97	-0.000992187	0.0445344
5265.97	-0.00114478	0.0437507
5304.97	-0.000934964	0.0426851
5343.97	-0.00106848	0.0462654
5382.97	-0.000992187	0.0436973
5421.97	-0.000896816	0.0433415
5460.97	-0.000973113	0.0415325
5499.97	-0.000896816	0.0444897
5538.97	-0.000954038	0.0433123
5577.97	-0.00091589	0.0423364
5616.97	-0.00091589	0.0411264
5655.97	-0.000839594	0.0424501
5694.97	-0.000801446	0.0434216
5733.97	-0.000839594	0.0417763
5772.97	-0.00091589	0.0408824
5811.97	-0.000877742	0.0403332
5850.97	-0.00091589	0.0431482
5889.97	-0.00101126	0.0409368
5928.97	-0.000858668	0.0407588
5967.97	-0.00101126	0.0391713
6006.97	-0.000954038	0.042321
6045.97	-0.000992187	0.0406269
6084.97	-0.00091589	0.0401132
6123.97	-0.000896816	0.0389381
6162.97	-0.000934964	0.0402772
6201.97	-0.00106848	0.0409343
6240.97	-0.000896816	0.0393912
6279.97	-0.000992187	0.0388099
6318.97	-0.00104941	0.0384632
6357.97	-0.000934964	0.0411601
6396.97	-0.000954038	0.0389798
6435.97	-0.000934964	0.0387545
6474.97	-0.000934964	0.0374664
6513.97	-0.000934964	0.0403079
6552.97	-0.000839594	0.038534
6591.97	-0.000877742	0.0381064
6630.97	-0.000992187	0.0370032
6669.97	-0.000877742	0.0386249
6708.97	-0.000782372	0.0388452
6747.97	-0.000858668	0.0376804
6786.97	-0.000992187	0.0371889
6825.97	-0.000934964	0.0368676
6864.97	-0.000992187	0.0391775
6903.97	-0.000934964	0.0373843
6942.97	-0.000973113	0.0372895
6981.97	-0.00103033	0.036178
7020.97	-0.000954038	0.0391157
7059.97	-0.000782372	0.0372946
7098.97	-0.00082052	0.0370299
7137.97	-0.00104941	0.035939
7176.97	-0.00091589	0.0375381
7215.97	-0.000858668	0.037137
7254.97	-0.000934964	0.0362759
7293.97	-0.000839594	0.0358767
7332.97	-0.00108756	0.0358321
7371.97	-0.000877742	0.0376633
7410.97	-0.000839594	0.0357923
7449.97	-0.00112571	0.0356421
7488.97	-0.000954038	0.0349441
7527.97	-0.00101126	0.0374708
7566.97	-0.000954038	0.0355935
7605.97	-0.000992187	0.0354513
7644.97	-0.000858668	0.0345054
7683.97	-0.000934964	0.0362296
7722.97	-0.00101126	0.0358064
7761.97	-0.000896816	0.0349802
7800.97	-0.000992187	0.0344472
7839.97	-0.000992187	0.0346869
7878.97	-0.00106848	0.0361649
7917.97	-0.000896816	0.0346156
7956.97	-0.000877742	0.0345286
7995.97	-0.000896816	0.0338214
8034.97	-0.000954038	0.0363333
8073.97	-0.000973113	0.0344518
8112.97	-0.000896816	0.0343344
8151.97	-0.000801446	0.0336127
8190.97	-0.000877742	0.0354752
8229.97	-0.000973113	0.0347647
8268.97	-0.00091589	0.0341188
8307.97	-0.000896816	0.0336536
8346.97	-0.000954038	0.0338959
8385.97	-0.000973113	0.0350785
8424.97	-0.000858668	0.033666
8463.97	-0.00103033	0.0336056
8502.97	-0.000896816	0.0332831
8541.97	-0.000896816	0.0354019
8580.97	-0.000858668	0.0335828
8619.97	-0.000934964	0.033528
8658.97	-0.000954038	0.0326696
8697.97	-0.000877742	0.0344819
8736.97	-0.000954038	0.0335551
8775.97	-0.000954038	0.0331304
8814.97	-0.000877742	0.0327341
8853.97	-0.000934964	0.0331129
8892.97	-0.000896816	0.0339691
8931.97	-0.000973113	0.032542
8970.97	-0.000973113	0.0325672
9009.97	-0.000896816	0.0321109
9048.97	-0.00082052	0.0340085
9087.97	-0.000954038	0.0323487
9126.97	-0.00091589	0.0325289
9165.97	-0.000877742	0.0319443
9204.97	-0.000858668	0.0335205
9243.97	-0.00101126	0.0326374
9282.97	-0.000954038	0.0320717
9321.97	-0.00104941	0.0316233
9360.97	-0.000954038	0.0321803
9399.97	-0.000954038	0.0331281
9438.97	-0.000782372	0.0318962
9477.97	-0.000934964	0.0319466
9516.97	-0.000801446	0.031555
9555.97	-0.000858668	0.0334342
9594.97	-0.00091589	0.0318382
9633.97	-0.000973113	0.0318302
9672.97	-0.000954038	0.0313174
9711.97	-0.000896816	0.0331003
9750.97	-0.000954038	0.0321124
9789.97	-0.00082052	0.0315717
9828.97	-0.00110663	0.031277
9867.97	-0.000934964	0.0318256
9906.97	-0.000973113	0.032392
9945.97	-0.000973113	0.0314067
9984.97	-0.000782372	0.0314506
10024	-0.00091589	0.0311127
10063	-0.000877742	0.0328912
10102	-0.000839594	0.0313501
10141	-0.00103033	0.0312365
10180	-0.00082052	0.030768
10219	-0.000858668	0.0323811
10258	-0.000934964	0.03141
10297	-0.000839594	0.0310685
10336	-0.000934964	0.0305325
10375	-0.000896816	0.0311925
10414	-0.00112571	0.0315129
10453	-0.000934964	0.0305773
10492	-0.000839594	0.0304753
10531	-0.000992187	0.0303067
10570	-0.00082052	0.0317615
10609	-0.000877742	0.0305128
10648	-0.00103033	0.0306115
10687	-0.000744223	0.0300395
10726	-0.000858668	0.0316622
10765	-0.00091589	0.0305117
10804	-2.00093	-192.944
10843	-2.00089	-51.3908
10882	-2.00089	-30.3756
10921	-2.00095	-21.8952
10960	-2.00084	-16.4972
10999	-2.00084	-13.3949
11038	-2.00093	-11.3828
11077	-2.00091	-10.2056
11116	-2.00091	-9.15061
11155	-2.00093	-8.45504
11194	-2.00099	-7.95573
11233	-2.0008	-7.68691
11272	-2.00099	-7.35065
11311	-2.00091	-7.10924
11350	-2.00097	-6.91296
11389	-2.00087	-6.80935
11428	-2.00097	-6.7045
11467	-2.00103	-6.55964
11506	-2.00103	-6.45039
11545	-2.00089	-6.36996
11584	-2.00072	-6.34922
11623	-2.00091	-6.24961
11662	-2.00091	-6.21137
11701	-0.000973113	199.542
11740	-0.000782372	3.51277
11779	-0.000992187	2.31037
11818	-0.000973113	1.98151
11857	-0.00082052	1.80873
11896	-0.00104941	1.72276
11935	-0.000858668	1.61065
11974	-0.00101126	1.51602
12013	-0.000896816	1.45041
12052	-0.000858668	1.39667
12091	-0.000782372	1.35502
12130	-0.000992187	1.27734
12169	-0.00091589	1.24094
12208	-0.00103033	1.20155
12247	-0.000877742	1.19267
12286	-0.000973113	1.13442
12325	-0.00091589	1.10252
12364	-0.000934964	1.06829
12403	-0.000934964	1.05725
12442	-0.00101126	1.02314
12481	-0.000896816	0.9917
12520	-0.00091589	0.970416
12559	-0.000973113	0.953215
12598	-0.00106848	0.941343
12637	-0.000877742	0.903834
12676	-0.000973113	0.886213
12715	-0.000934964	0.865208
12754	-0.00101126	0.862733
12793	-0.000839594	0.827587
12832	-0.000973113	0.809968
12871	-0.000954038	0.79039
12910	-0.000934964	0.786123
12949	-0.00101126	0.765621
12988	-0.00112571	0.744891
13027	-0.00106848	0.729918
13066	-0.00101126	0.719372
13105	-0.000896816	0.711939
13144	-0.00104941	0.686459
13183	-0.000858668	0.67443
13222	-0.000992187	0.660599
13261	-0.00082052	0.661338
13300	-0.00082052	0.637731
13339	-0.000992187	0.62653
13378	-0.000954038	0.613078
13417	-0.00091589	0.611995
13456	-0.000954038	0.596968
13495	-0.000934964	0.582673
13534	-0.00101126	0.571754
13573	-0.000782372	0.565187
13612	-0.000992187	0.561593
13651	-0.000763297	0.54336
13690	-0.000934964	0.535079
13729	-0.000858668	0.525087
13768	-0.000992187	0.527172
13807	-0.000954038	0.509387
13846	-0.000896816	0.500636
13885	-0.000954038	0.490543
13924	-0.000801446	0.4887
13963	-0.00091589	0.477045
14002	-0.000877742	0.466283
14041	-0.000877742	0.458013
14080	-0.000896816	0.453317
14119	-0.000877742	0.4502
14158	-0.00082052	0.436141
14197	-0.000973113	0.42972
14236	-0.000877742	0.421842
14275	-0.000896816	0.423568
14314	-0.000896816	0.40844
14353	-0.00091589	0.401053
14392	-0.00110663	0.391832
14431	1.99935	55.2637
14470	1.99939	34.5018
14509	1.99919	24.7506
14548	1.99939	20.3852
14587	1.99925	18.1709
14626	1.99937	17.1403
14665	1.99942	16.1152
14704	1.99929	15.349
14743	1.99944	14.7267
14782	1.99946	14.3685
14821	1.99948	13.8154
14860	1.99929	13.3683
14899	1.99939	12.945
14938	1.99952	12.7477
14977	1.99952	12.5743
15016	1.99935	12.2366
15055	1.99952	11.9864
15094	1.9994	11.8177
15133	1.99944	11.9109
15172	1.99927	11.6548
15211	1.9994	11.5011
15250	1.99939	11.3458
15289	1.99939	11.4761
15328	1.99919	11.3405
15367	1.99931	11.2131
15406	1.9994	11.0721
15445	1.99944	11.1293
15484	1.99939	11.1013
15523	1.9994	10.9516
15562	1.99942	10.8279
15601	1.99937	10.767
15640	1.99937	10.8662
15679	1.99939	10.7109
15718	1.99939	10.6359
15757	1.9994	10.5177
15796	1.99944	10.6151
15835	1.99942	10.5587
15874	1.99935	10.513
15913	1.99935	10.4692
15952	1.99946	10.5572
15991	1.99933	10.6275
16030	1.99948	10.633
16069	1.99935	10.5779
16108	1.99929	10.5964
16147	1.99944	10.7119
16186	1.99935	10.6985
16225	-0.000973113	-2.17591
16264	-0.000992187	-0.591419
16303	-0.000973113	-0.337023
16342	-0.00103033	-0.238628
16381	-0.000801446	-0.198072
16420	-0.000973113	-0.178692
16459	-0.000877742	-0.154261
16498	-0.00104941	-0.12785
16537	-0.000896816	-0.114673
16576	-0.000858668	-0.0997059
16615	-0.000877742	-0.0871053
16654	-0.00101126	-0.0602132
16693	-0.000782372	-0.0549106
16732	-0.000801446	-0.0516944
16771	-0.000896816	-0.0522365
16810	-0.000782372	-0.0349063
16849	-0.000934964	-0.0297181
16888	-0.000973113	-0.0269694
16927	-0.00091589	-0.0266067
16966	-0.000954038	-0.015367
17005	-0.000782372	-0.00600575
17044	-0.000839594	-0.00508563
17083	-0.000973113	-0.00590374
17122	-0.000858668	-0.00466789
17161	-0.000839594	0.00757302
17200	-0.000896816	0.00753963
17239	-0.00103033	0.00708799
17278	-0.000801446	0.0051227
17317	-0.000934964	0.0170447
17356	-0.000934964	0.0178819
17395	-0.00091589	0.0170408
17434	-0.000896816	0.0137458
17473	-0.000896816	0.0205334
17512	-0.000877742	0.0240737
17551	-0.000877742	0.0229337
17590	-0.000973113	0.0198438
17629	-0.000954038	0.0214329
17668	-0.000934964	0.0288114
17707	-0.000801446	0.0274048
17746	-0.000934964	0.025584
17785	-0.000973113	0.0230643
17824	-0.00091589	0.0312687
17863	-0.000896816	0.0307976
17902	-0.00091589	0.0289874
17941	-0.000992187	0.0247672
17980	-0.00091589	0.0315614
18019	-0.00103033	0.0332349
18058	-0.000973113	0.0321744
18097	-0.000992187	0.0294669
18136	-0.000973113	0.0314577
18175	-0.000782372	0.0367506
18214	-0.000744223	0.0352812
18253	-0.000744223	0.0334312
18292	-0.00108756	0.0314933
18331	-0.000858668	0.0383797
18370	-0.000877742	0.0369417
18409	-0.000782372	0.0358069
18448	-0.00091589	0.032231
18487	-0.000954038	0.0375226
18526	-0.000896816	0.0378173
18565	-0.000782372	0.0370329
18604	-0.00091589	0.034342
18643	-0.000973113	0.0365113
18682	-0.000973113	0.0396618
18721	-0.00091589	0.0377968
18760	-0.00103033	0.0361821
18799	-0.000934964	0.0345145
18838	-0.000973113	0.0397186
18877	-0.000954038	0.0375934
18916	-0.000934964	0.0369477
18955	-0.00091589	0.0343091
18994	-0.000954038	0.039073
19033	-0.000896816	0.0384123
19072	-0.000992187	0.0374161
19111	-0.000839594	0.0350093
19150	-0.000954038	0.0366059
19189	-0.000839594	0.0387294
19228	-0.00106848	0.0371775
19267	-0.000954038	0.0354858
19306	-0.000934964	0.0350496
19345	-0.000992187	0.0391129
19384	-0.000973113	0.0366868
19423	-0.000954038	0.0357342
19462	-0.000973113	0.0342328
19501	-0.000858668	0.0381144
19540	-0.00101126	0.0365444
19579	-0.000839594	0.0356411
19618	-0.000954038	0.033786
19657	-0.000896816	0.0361646
19696	-0.00104941	0.037306
19735	-0.000839594	0.036094
19774	-0.000954038	0.0346597
19813	-0.000896816	0.0340883
19852	-0.000992187	0.0374044
19891	-0.000992187	0.0359859
19930	-0.000954038	0.0355237
19969	-0.00101126	0.0336876
20008	-0.00091589	0.0376268
20047	-0.00101126	0.035982
20086	-0.000992187	0.0354681
20125	-0.00082052	0.0344285
20164	-0.000992187	0.0365501
20203	-0.000954038	0.0359947
20242	-0.000954038	0.034411
20281	-0.000858668	0.0323679
20320	-0.000896816	0.0322013
20359	-0.000801446	0.0348475
20398	-0.00103033	0.0333293
20437	-0.00101126	0.0327656
20476	-0.000877742	0.031578
20515	-0.000877742	0.034921
20554	-0.000801446	0.0330226
20593	-0.00091589	0.0322508
20632	-0.000858668	0.0307372
20671	-0.000934964	0.0330784
20710	-0.000973113	0.0330684
20749	-0.000782372	0.0324003
20788	-0.000973113	0.0317195
20827	-0.000877742	0.0320356
20866	-0.000954038	0.0337685
20905	-0.000896816	0.0320788
20944	-0.000992187	0.0315229
20983	-0.00091589	0.0306761
21022	-0.000877742	0.033457
21061	-0.000896816	0.0316814
21100	-0.00103033	0.0316248
21139	-0.000973113	0.0302961
21178	-0.000934964	0.0320835
21217	-0.000877742	0.0316863
21256	-0.000858668	0.0311708
21295	-0.000973113	0.0306985
21334	-0.000896816	0.0310948
21373	-0.000954038	0.0326317
21412	-0.000954038	0.0312785
21451	-0.000896816	0.030612
21490	-0.000877742	0.0298272
21529	-0.00108756	0.0323038
21568	-0.000763297	0.0309581
21607	-0.000954038	0.030425
21646	-0.00091589	0.0291396
21685	-0.00091589	0.0314084
21724	-0.00101126	0.0311387
21763	-0.000954038	0.0303706
21802	-0.000839594	0.0296347
21841	-0.00101126	0.0303299
21880	-0.000934964	0.0314056
21919	-0.000725149	0.0302219
21958	-0.00110663	0.0298254
21997	-0.000858668	0.0293557
22036	-0.00103033	0.0312764
22075	-0.000934964	0.0297097
22114	-0.000992187	0.0295925
22153	-0.000839594	0.0286552
22192	-0.000973113	0.0307737
22231	-0.000877742	0.0297942
22270	-0.000934964	0.0292554
22309	-0.000934964	0.0283434
22348	-0.00082052	0.0293104
22387	-0.000896816	0.0299348
22426	-0.000934964	0.0289357
22465	-0.00082052	0.028663
22504	-0.000992187	0.0282505
22543	-0.000896816	0.0305028
22582	-0.000763297	0.0289744
22621	-0.000782372	0.0288813
22660	-0.00091589	0.0279405
22699	-0.000934964	0.0301042
22738	-0.000992187	0.0292584
22777	-0.000858668	0.0288007
22816	-0.00091589	0.0279393
22855	-0.000954038	0.0289112
22894	-0.000934964	0.0293627
22933	-0.000782372	0.0280604
22972	-0.000973113	0.0276779
23011	-0.000934964	0.027548
23050	-0.00091589	0.0292318
23089	-0.000839594	0.027824
23128	-0.00082052	0.0276973
23167	-0.00091589	0.0270885
23206	-0.000992187	0.0291074
23245	-0.000992187	0.0279561
23284	-0.000992187	0.0277456
23323	-0.000934964	0.0269441
23362	-0.000973113	0.0279348
23401	-0.000858668	0.0279911
23440	-0.000934964	0.0271923
23479	-0.000858668	0.0269781
23518	-0.00091589	0.0270941
23557	-0.000934964	0.0288576
23596	-0.000896816	0.0274943
23635	-0.000839594	0.0275961
23674	-0.00104941	0.0270471
23713	-0.000782372	0.0291175
23752	-0.000973113	0.0279047
23791	-0.000896816	0.0275998
23830	-0.00103033	0.0266809
23869	-0.000954038	0.0275298
23908	-0.000954038	0.0274403
23947	-0.00091589	0.0268909
23986	-0.000992187	0.0263512
24025	-0.00103033	0.0266632
24064	-0.00101126	0.0281272
24103	-0.000992187	0.0269049
24142	-0.000858668	0.0266592
24181	-0.000934964	0.0259575
24220	-0.00091589	0.0279566
24259	-0.00082052	0.0266028
24298	-0.00091589	0.0263869
24337	-0.00082052	0.0257364
24376	-0.000896816	0.0268922
24415	-0.000992187	0.0267913
24454	-0.00104941	0.0261521
24493	-0.000896816	0.0257988
24532	-0.000801446	0.026057
24571	-0.000801446	0.0273165
24610	-0.000934964	0.0262956
24649	-0.000934964	0.0261426
24688	-0.00082052	0.0255719
24727	-0.00108756	0.0270522
24766	-0.00091589	0.0257587
24805	-0.000839594	0.02568
24844	-0.000839594	0.0250309
24883	-0.000954038	0.0262404
24922	-0.000973113	0.0259063
24961	-0.00091589	0.0253729
25000	-0.000973113	0.0250493
25039	-0.000839594	0.0253363
25078	-0.00103033	0.0262592
25117	-0.000877742	0.0251677
25156	-0.000877742	0.0249544
25195	-0.000954038	0.0247224
25234	-2.00093	-62.3216
25273	-2.00093	-31.658
25312	-2.00087	-20.4846
25351	-2.00078	-14.5989
25390	-2.00095	-11.3355
25429	-2.00082	-9.13359
25468	-2.00082	-7.52432
25507	-2.00085	-6.42802
25546	-2.00093	-5.69164
25585	-2.0008	-5.15172
25624	-2.00076	-4.63234
25663	-2.00076	-4.2522
25702	-2.00093	-3.95132
25741	-2.00074	-3.75449
25780	-2.00084	-3.48571
25819	-2.00085	-3.3251
25858	-2.00078	-3.12567
25897	-2.00087	-3.02568
25936	-2.00095	-2.89577
25975	-2.00091	-2.7673
26014	-2.00089	-2.66264
26053	-2.00084	-2.59765
26092	-2.00089	-2.54726
26131	-0.000858668	3.28536
26170	-0.00091589	1.64019
26209	-0.000858668	1.24163
26248	-0.000934964	1.08301
26287	-0.000896816	0.940646
26326	-0.000992187	0.858822
26365	-0.000782372	0.791202
26404	-0.000896816	0.757948
26443	-0.00103033	0.702682
26482	-0.000934964	0.660626
26521	-0.000992187	0.626931
26560	-0.000839594	0.607944
26599	-0.000782372	0.589496
26638	-0.00082052	0.559261
26677	-0.000801446	0.542649
26716	-0.000782372	0.528588
26755	-0.00101126	0.529615
26794	-0.00082052	0.505613
26833	-0.00101126	0.49584
26872	-0.000744223	0.483955
26911	-0.000973113	0.486122
26950	-0.000763297	0.470925
26989	-0.000992187	0.460525
27028	-0.00082052	0.451749
27067	-0.00082052	0.451574
27106	-0.000973113	0.448156
27145	-0.000858668	0.434042
27184	-0.00101126	0.428445
27223	-0.000839594	0.423259
27262	-0.00091589	0.428442
27301	-0.000839594	0.4128
27340	-0.00101126	0.407845
27379	-0.00104941	0.401019
27418	-0.000858668	0.406982
27457	-0.000992187	0.396245
27496	-0.000896816	0.389233
27535	-0.000934964	0.383262
27574	-0.000954038	0.38442
27613	-0.000896816	0.382074
27652	-0.000763297	0.371837
27691	-0.000973113	0.367283
27730	-0.000896816	0.363892
27769	-0.000934964	0.368196
27808	-0.000896816	0.355937
27847	-0.000973113	0.352
27886	-0.000877742	0.346379
27925	-0.000934964	0.352069
27964	-0.000992187	0.343062
28003	-0.000934964	0.337617
28042	-0.00103033	0.332705
28081	-0.000877742	0.334642
28120	-0.00103033	0.332835
28159	-0.000973113	0.324121
28198	-0.000934964	0.32076
28237	-0.00091589	0.318261
28276	-0.000954038	0.322199
28315	-0.000992187	0.312232
28354	-0.000973113	0.308226
28393	-0.000801446	0.303647
28432	-0.00101126	0.308968
28471	-0.000839594	0.301057
28510	-0.000896816	0.296434
28549	-0.000954038	0.292171
28588	-0.000934964	0.294069
28627	-0.000858668	0.291962
28666	-0.000763297	0.284893
28705	-0.000992187	0.281869
28744	-0.00091589	0.279782
28783	-0.000973113	0.282719
28822	1.99921	54.127
28861	1.99939	31.5542
28900	1.99925	21.9843
28939	1.99931	17.9347
28978	1.99927	15.8608
29017	1.9994	14.6141
29056	1.99937	13.7683
29095	1.9994	13.2036
29134	1.99916	12.8735
29173	1.99929	12.4704
29212	1.99942	12.1714
29251	1.99944	11.887
29290	1.99931	11.8066
29329	1.99937	11.5978
29368	1.99931	11.4187
29407	1.99939	11.2526
29446	1.99937	11.2345
29485	1.99948	11.148
29524	1.99927	11.0321
29563	1.99948	10.9061
29602	1.99956	10.8254
29641	1.99942	10.7909
29680	1.99931	10.6755
29719	1.99937	10.5806
29758	1.9995	10.4903
29797	1.99927	10.5185
29836	1.99939	10.4928
29875	1.99925	10.4637
29914	1.99919	10.4358
29953	1.99948	10.4549
29992	1.99944	10.4901
30031	1.9994	10.4854
30070	1.99939	10.4808
30109	1.99944	10.4699
30148	1.99944	10.517
30187	1.99935	10.5335
30226	1.99948	10.5383
30265	1.99942	10.5326
30304	1.99942	10.5369
30343	1.99923	10.5968
30382	1.99944	10.6038
30421	1.99937	10.6066
30460	1.99944	10.6007
30499	1.99929	10.6638
30538	1.99942	10.6838
30577	1.99935	10.7034
30616	-0.000877742	-4.22015
30655	-0.000954038	-0.823568
30694	-0.000763297	-0.446353
30733	-0.000992187	-0.325885
30772	-0.000839594	-0.273811
30811	-0.000992187	-0.237582
30850	-0.00110663	-0.213703
30889	-0.000992187	-0.201106
30928	-0.000839594	-0.193472
30967	-0.000896816	-0.179017
31006	-0.00082052	-0.160253
31045	-0.00082052	-0.1515
31084	-0.000954038	-0.142151
31123	-0.000896816	-0.132506
31162	-0.00091589	-0.116285
31201	-0.000877742	-0.110342
31240	-0.000954038	-0.105163
31279	-0.000934964	-0.100359
31318	-0.00110663	-0.0870504
31357	-0.000877742	-0.0805749
31396	-0.00091589	-0.077098
31435	-0.000973113	-0.0768548
31474	-0.000934964	-0.0687845
31513	-0.000896816	-0.0624177
31552	-0.000973113	-0.060944
31591	-0.00082052	-0.061116
31630	-0.00082052	-0.0574796
31669	-0.00103033	-0.0475153
31708	-0.000896816	-0.0458422
31747	-0.000858668	-0.0456717
31786	-0.000763297	-0.046289
31825	-0.000877742	-0.0364686
31864	-0.00082052	-0.0341912
31903	-0.000954038	-0.033726
31942	-0.000934964	-0.0353798
31981	-0.00091589	-0.0288964
32020	-0.000992187	-0.0244689
32059	-0.000877742	-0.0243095
32098	-0.000839594	-0.0256403
32137	-0.00091589	-0.0222469
32176	-0.000954038	-0.0154875
32215	-0.00106848	-0.015124
32254	-0.000744223	-0.0153009
32293	-0.000934964	-0.0153907
32332	-0.000858668	-0.00844557
32371	-0.000801446	-0.00805824
32410	-0.00082052	-0.0085494
32449	-0.00101126	-0.00997036
32488	-0.000934964	-0.00498358
32527	-0.000896816	-0.0026957
32566	-0.000839594	-0.00313387
32605	-0.000744223	-0.00492442
32644	-0.000877742	-0.00197262
32683	-0.00104941	0.00203663
32722	-0.000858668	0.00152911
32761	-0.000954038	0.000589656
32800	-0.000934964	6.87289e-05
32839	-0.000934964	0.00525645
32878	-0.000858668	0.00515084
32917	-0.000896816	0.00498361
32956	-0.00101126	0.00334748
32995	-0.000839594	0.00843064
33034	-0.000877742	0.00950474
33073	-0.000934964	0.00862936
33112	-0.000934964	0.00671451
33151	-0.00082052	0.00965493
33190	-0.000954038	0.0120962
33229	-0.000954038	0.0116441
33268	-0.000877742	0.0103719
33307	-0.00103033	0.0104158
33346	-0.00082052	0.0143975
33385	-0.000801446	0.0141732
33424	-0.000839594	0.0133497
33463	-0.000877742	0.0118317
33502	-0.00091589	0.0155277
33541	-0.00091589	0.0157022
33580	-0.000858668	0.0155169
33619	-0.000973113	0.0137148
33658	-0.000896816	0.0160092
33697	-0.000839594	0.0172338
33736	-0.00101126	0.0166228
33775	-0.000763297	0.0158228
33814	-0.000896816	0.0161007
33853	-0.000954038	0.0189077
33892	-0.000896816	0.0181123
33931	-0.00091589	0.0176594
33970	-0.000954038	0.0166148
34009	-0.00106848	0.0198121
34048	-0.000954038	0.0198346
34087	-0.000839594	0.0191396
34126	-0.000896816	0.0177968
34165	-0.000992187	0.0202702
34204	-0.000896816	0.021009
34243	-0.000973113	0.0201665
34282	-0.00091589	0.0188004
34321	-0.000992187	0.0195334
34360	-0.000839594	0.0216245
34399	-0.00101126	0.020818
34438	-0.000973113	0.0200715
34477	-0.000858668	0.0193787
34516	-0.000954038	0.0220035
34555	-0.000973113	0.0213149
34594	-0.000858668	0.0206819
34633	-0.00082052	0.0195972
34672	-0.000877742	0.0219329
34711	-0.000992187	0.0221407
34750	-0.000782372	0.0216724
34789	-0.000954038	0.0203708
34828	-0.000763297	0.021346
34867	-0.00106848	0.0226813
34906	-0.000877742	0.0221928
34945	-0.000973113	0.0214031
34984	-0.000839594	0.0212255
35023	-0.000934964	0.0236171
35062	-0.000896816	0.0226925
35101	-0.000954038	0.0220568
35140	-0.000839594	0.0211028
35179	-0.00091589	0.0233456
35218	-0.000954038	0.0232201
35257	-0.00091589	0.0223366
35296	-0.000992187	0.0217483
35335	-0.000839594	0.022329
35374	-0.00091589	0.023273
35413	-0.000973113	0.0224135
35452	-0.000801446	0.0218739
35491	-0.000839594	0.0218151
35530	-0.000858668	0.0238054
35569	-0.000763297	0.0229625
35608	-0.000934964	0.0226988
35647	-0.000801446	0.0218465
35686	-0.00091589	0.0235559
35725	-0.000934964	0.0233509
35764	-0.000858668	0.0228331
35803	-0.000973113	0.0217882
35842	-0.000954038	0.0228164
35881	-0.00082052	0.0236218
35920	-0.000744223	0.0228104
35959	-0.000934964	0.0221911
35998	-0.000877742	0.0218712
36037	-0.000858668	0.0236993
36076	-0.000858668	0.0229251
36115	-0.000973113	0.0226442
36154	-0.000858668	0.0217371
36193	-0.000858668	0.0235941
36232	-0.000954038	0.0232758
36271	-0.00082052	0.0228089
36310	-0.000839594	0.0220604
36349	-0.00091589	0.0231625
36388	-0.00091589	0.023673
36427	-0.000877742	0.0231231
36466	-0.000877742	0.0228206
36505	-0.000877742	0.0229353
36544	-0.00112571	0.0241047
36583	-0.000858668	0.023125
36622	-0.000954038	0.0225689
36661	-0.000973113	0.0221235
36700	-0.000973113	0.0235355
36739	-0.000839594	0.0228672
36778	-0.000934964	0.0227172
36817	-0.00106848	0.0219081
36856	-0.000877742	0.0231571
36895	-0.000877742	0.0232381
36934	-0.000858668	0.02255
36973	-0.000858668	0.0220778
37012	-0.000992187	0.0223541
37051	-0.000896816	0.0235427
37090	-0.000839594	0.0229616
37129	-0.000706075	0.0227077
37168	-0.000839594	0.0224042
37207	-0.000858668	0.0238599
37246	-0.000858668	0.0232651
37285	-0.00091589	0.0228428
37324	-0.00082052	0.022096
37363	-0.000896816	0.0232126
37402	-0.00091589	0.0232188
37441	-0.00091589	0.022687
37480	-0.00082052	0.022191
37519	-0.00101126	0.0222911
37558	-0.000839594	0.0232847
37597	-0.000877742	0.0226624
37636	-0.00091589	0.0224715
37675	-0.000934964	0.0220159
37714	-0.00091589	0.0233797
37753	-0.000896816	0.0225988
37792	-0.00082052	0.0223265
37831	-0.000877742	0.0218046
37870	-0.000801446	0.0229995
37909	-0.00103033	0.0230343
37948	-0.000782372	0.0225224
37987	-0.000896816	0.0220699
38026	-0.000934964	0.0223026
38065	-0.000896816	0.0229903
38104	-0.000896816	0.0222688
38143	-0.000954038	0.0221328
38182	-0.000896816	0.0218213
38221	-0.000954038	0.0232039
38260	-0.000992187	0.0224037
38299	-0.00082052	0.0220882
38338	-0.000896816	0.021318
38377	-0.000973113	0.0224347
38416	-0.000973113	0.0219783
38455	-0.000877742	0.0217053
38494	-0.000877742	0.0213675
38533	-0.000858668	0.0217107
38572	-0.00082052	0.0223274
38611	-0.000858668	0.0216027
38650	-0.000858668	0.0212302
38689	-0.000973113	0.0213603
38728	-0.00082052	0.0226136
38767	-0.00108756	0.0218782
38806	-0.000934964	0.021531
38845	-0.000896816	0.0210634
38884	-0.000973113	0.0221245
38923	-0.000858668	0.0216386
38962	-0.000858668	0.0214597
39001	-0.00082052	0.0211213
39040	-0.000896816	0.0215828
39079	-0.000973113	0.0220499
39118	-0.000934964	0.0214153
39157	-0.000782372	0.0214457
39196	-0.000782372	0.021185
39235	-0.000973113	0.0223847
39274	-0.00082052	0.0216411
39313	-0.00082052	0.021491
39352	-0.00104941	0.0210757
39391	-0.00101126	0.0220515
39430	-0.000877742	0.0216648
39469	-0.000934964	0.0214572
39508	-0.00091589	0.0212028
39547	-0.000839594	0.0215703
39586	-0.000973113	0.0218817
39625	-2.0008	-57.9466
39664	-2.00089	-25.355
39703	-2.00078	-15.8228
39742	-2.00101	-11.7568
39781	-2.00076	-9.01758
39820	-2.00082	-7.35064
39859	-2.00084	-6.21143
39898	-2.00078	-5.53744
39937	-2.00089	-4.87298
39976	-2.00076	-4.40039
40015	-2.00099	-4.03229
40054	-2.00097	-3.75551
40093	-2.00091	-3.50189
40132	-2.00084	-3.27758
40171	-2.00091	-3.08605
40210	-2.00074	-2.93722
40249	-2.00087	-2.83704
40288	-2.00089	-2.71297
40327	-2.00085	-2.5838
40366	-2.00084	-2.4859
40405	-2.00089	-2.46675
40444	-2.00091	-2.34794
40483	-2.00084	-2.2791
40522	-0.000896816	4.6359
40561	-0.00091589	1.57949
40600	-0.000725149	1.05211
40639	-0.000839594	0.832116
40678	-0.00103033	0.716294
40717	-0.000896816	0.64358
40756	-0.000973113	0.59689
40795	-0.000896816	0.540645
40834	-0.00091589	0.503705
40873	-0.00103033	0.468749
40912	-0.000934964	0.453452
40951	-0.000973113	0.421861
40990	-0.00091589	0.400408
41029	-0.000973113	0.380504
41068	-0.000896816	0.371557
41107	-0.00104941	0.356088
41146	-0.00091589	0.339871
41185	-0.000896816	0.327591
41224	-0.000896816	0.319794
41263	-0.00101126	0.316042
41302	-0.00082052	0.302411
41341	-0.000858668	0.295513
41380	-0.000934964	0.288944
41419	-0.000782372	0.291239
41458	-0.00103033	0.281121
41497	-0.00101126	0.276234
41536	-0.000934964	0.270887
41575	-0.00091589	0.27297
41614	-0.000877742	0.268131
41653	-0.00103033	0.262291
41692	-0.00091589	0.258513
41731	-0.000896816	0.257798
41770	-0.00110663	0.258625
41809	-0.000992187	0.251436
41848	-0.000839594	0.248768
41887	-0.000839594	0.245906
41926	-0.000839594	0.249658
41965	-0.000858668	0.242824
42004	-0.000839594	0.239935
42043	-0.000934964	0.236326
42082	-0.000858668	0.239061
42121	-0.00104941	0.235242
42160	-0.000934964	0.230975
42199	-0.00103033	0.227837
42238	-0.000858668	0.227522
42277	-0.00101126	0.227887
42316	-0.000896816	0.221966
42355	-0.000782372	0.219607
42394	-0.000934964	0.217191
42433	-0.000973113	0.220097
42472	-0.000839594	0.21392
42511	-0.000954038	0.211248
42550	-0.000973113	0.208288
42589	-0.000934964	0.210454
42628	-0.00103033	0.206888
42667	-0.00114478	0.203173
42706	-0.000877742	0.200338
42745	-0.00103033	0.199932
42784	-0.000839594	0.200028
42823	-0.00082052	0.194751
42862	-0.00101126	0.192065
42901	-0.000954038	0.189697
42940	-0.00091589	0.192078
42979	-0.000934964	0.186531
43018	-0.000896816	0.184168
43057	-0.000896816	0.18093
43096	-0.00103033	0.18269
43135	-0.00101126	0.178916
43174	-0.000744223	0.175695
43213	1.99937	64.9741
43252	1.99921	35.5697
43291	1.99937	24.2813
43330	1.99944	18.8927
43369	1.9995	16.1241
43408	1.99952	14.5895
43447	1.9995	13.6644
43486	1.99939	13.1072
43525	1.99931	12.6977
43564	1.99929	12.4091
43603	1.99933	12.1812
43642	1.99944	12.0506
43681	1.99931	11.954
43720	1.99918	11.8579
43759	1.99929	11.7805
43798	1.99937	11.7009
43837	1.99939	11.6731
43876	1.99954	11.616
43915	1.9994	11.5717
43954	1.9994	11.5208
43993	1.99925	11.5359
44032	1.99937	11.4884
44071	1.99935	11.463
44110	1.99933	11.4086
44149	1.9994	11.4191
44188	1.99942	11.425
44227	1.99931	11.4052
44266	1.99933	11.3756
44305	1.99923	11.3548
44344	1.99937	11.3676
44383	1.99952	11.3602
44422	1.99925	11.3377
44461	1.9994	11.2827
44500	1.99946	11.3162
44539	1.99954	11.2942
44578	1.99944	11.2749
44617	1.99937	11.2132
44656	1.99927	11.2158
44695	1.9994	11.2141
44734	1.99937	11.1981
44773	1.99942	11.1434
44812	1.99927	11.1061
44851	1.99931	11.1163
44890	1.99929	11.0825
44929	1.99937	11.0683
44968	1.99931	10.9928
45007	-0.000896816	-14.5247
45046	-0.000877742	-1.17114
45085	-0.000896816	-0.604033
45124	-0.00101126	-0.435146
45163	-0.000896816	-0.337113
45202	-0.000896816	-0.289574
45241	-0.000858668	-0.262302
45280	-0.000934964	-0.249367
45319	-0.000896816	-0.235753
45358	-0.000801446	-0.22347
45397	-0.000877742	-0.213891
45436	-0.000896816	-0.206859
45475	-0.000858668	-0.197544
45514	-0.00091589	-0.187681
45553	-0.000782372	-0.183266
45592	-0.000706075	-0.180222
45631	-0.00082052	-0.17538
45670	-0.000763297	-0.164345
45709	-0.000934964	-0.158941
45748	-0.000934964	-0.154264
45787	-0.000877742	-0.150994
45826	-0.00091589	-0.141787
45865	-0.00091589	-0.136889
45904	-0.000839594	-0.133917
45943	-0.000954038	-0.132324
45982	-0.000839594	-0.125929
46021	-0.000934964	-0.119893
46060	-0.00103033	-0.117868
46099	-0.000973113	-0.116174
46138	-0.000934964	-0.11217
46177	-0.000839594	-0.104747
46216	-0.000934964	-0.102538
46255	-0.00101126	-0.10091
46294	-0.000858668	-0.0995355
46333	-0.000896816	-0.0923039
46372	-0.000954038	-0.0896322
46411	-0.000687001	-0.0882054
46450	-0.000801446	-0.0879616
46489	-0.000801446	-0.081672
46528	-0.000858668	-0.0775363
46567	-0.000725149	-0.076434
46606	-0.00101126	-0.0763596
46645	-0.000934964	-0.0727202
46684	-0.000896816	-0.0677511
46723	-0.000896816	-0.0667471
46762	-0.000801446	-0.0661707
46801	-0.000896816	-0.0648078
46840	-0.000877742	-0.0589198
46879	-0.000973113	-0.057657
46918	-0.000934964	-0.0570821
46957	-0.00091589	-0.0575051
46996	-0.000934964	-0.0521733
47035	-0.000992187	-0.0496635
47074	-0.000763297	-0.0492397
47113	-0.000858668	-0.0496069
47152	-0.000839594	-0.0466319
47191	-0.000858668	-0.0426552
47230	-0.000896816	-0.0423894
47269	-0.00082052	-0.042798
47308	-0.000839594	-0.0416409
47347	-0.000954038	-0.0373331
47386	-0.00082052	-0.0366804
47425	-0.000877742	-0.0364461
47464	-0.000744223	-0.0369028
47503	-0.000744223	-0.0327103
47542	-0.000973113	-0.0312781
47581	-0.000934964	-0.0313363
47620	-0.000896816	-0.0319769
47659	-0.000934964	-0.0293088
47698	-0.00091589	-0.0267126
47737	-0.000992187	-0.0263793
47776	-0.00101126	-0.0264745
47815	-0.000954038	-0.0256471
47854	-0.000858668	-0.02248
47893	-0.000858668	-0.0222509
47932	-0.000877742	-0.0227289
47971	-0.000992187	-0.0230487
48010	-0.000954038	-0.0195927
48049	-0.000858668	-0.0187167
48088	-0.000896816	-0.0187064
48127	-0.000839594	-0.0194397
48166	-0.000896816	-0.0170598
48205	-0.000973113	-0.015715
48244	-0.000896816	-0.0157964
48283	-0.000877742	-0.0164054
48322	-0.000877742	-0.0148702
48361	-0.000858668	-0.012274
48400	-0.00082052	-0.0123161
48439	-0.00082052	-0.0126335
48478	-0.000706075	-0.012944
48517	-0.000877742	-0.0102221
48556	-0.000839594	-0.0101747
48595	-0.000973113	-0.0101228
48634	-0.000839594	-0.0106542
48673	-0.000934964	-0.00834559
48712	-0.00091589	-0.00720758
48751	-0.00091589	-0.00753637
48790	-0.000839594	-0.00804874
48829	-0.00101126	-0.00727757
48868	-0.000858668	-0.00561736
48907	-0.000858668	-0.00610009
48946	-0.000782372	-0.00637415
48985	-0.000877742	-0.00682394
49024	-0.000973113	-0.00457448
49063	-0.000954038	-0.0044988
49102	-0.000877742	-0.00454098
49141	-0.00101126	-0.00521597
49180	-0.000782372	-0.00342412
49219	-0.000934964	-0.0027378
49258	-0.00106848	-0.00276747
49297	-0.00082052	-0.00329623
49336	-0.00091589	-0.00233994
49375	-0.000839594	-0.00105092
49414	-0.000782372	-0.00117342
49453	-0.000725149	-0.00181516
49492	-0.000858668	-0.0016502
49531	-0.000858668	-6.40726e-05
49570	-0.00082052	6.19023e-05
49609	-0.000877742	-5.50903e-05
49648	-0.000954038	-0.00084113
49687	-0.000877742	0.000446235
49726	-0.000973113	0.00115675
49765	-0.00091589	0.000950328
49804	-0.00101126	0.000324798
49843	-0.000744223	0.00151702
49882	-0.00101126	0.00251733
49921	-0.000801446	0.00214898
49960	-0.000973113	0.00166068
49999	-0.000877742	0.00171431
50038	-0.00103033	0.00330783
50077	-0.00091589	0.0032772
50116	-0.00091589	0.0031889
50155	-0.000877742	0.00275412
50194	-0.00091589	0.00427516
50233	-0.000973113	0.00412178
50272	-0.00101126	0.00395782
50311	-0.000877742	0.00318318
50350	-0.000896816	0.00440611
50389	-0.000992187	0.0048263
50428	-0.000954038	0.00468623
50467	-0.000896816	0.00431654
50506	-0.000896816	0.00451074
50545	-0.000801446	0.00563247
50584	-0.00103033	0.00538801
50623	-0.000877742	0.00498189
50662	-0.000763297	0.00465007
50701	-0.000839594	0.00601553
50740	-0.000858668	0.00602723
50779	-0.00101126	0.00582715
50818	-0.000858668	0.00518501
50857	-0.000839594	0.00595257
50896	-0.00091589	0.00651689
50935	-0.00103033	0.00627619
50974	-0.000896816	0.00608963
51013	-0.000934964	0.00628196
51052	-0.000896816	0.00730046
51091	-0.000877742	0.00721852
51130	-0.000934964	0.007122
51169	-0.000954038	0.00690084
51208	-0.000839594	0.00827372
51247	-0.000877742	0.00801858
51286	-0.000839594	0.00795561
51325	-0.000801446	0.00741403
51364	-0.000954038	0.00832473
51403	-0.00103033	0.00851023
51442	-0.00082052	0.00831832
51481	-0.000896816	0.00788842
51520	-0.000934964	0.00819635
51559	-0.000934964	0.00906114
51598	-0.00101126	0.00876842
51637	-0.00103033	0.00845431
51676	-0.000839594	0.00860759
51715	-0.000782372	0.00965061
51754	-0.00082052	0.00948224
51793	-0.000858668	0.00943812
51832	-0.000896816	0.00870637
51871	-0.000934964	0.00953503
51910	-0.000858668	0.00959572
51949	-0.000934964	0.00948922
51988	-0.000877742	0.00909286
52027	-0.000954038	0.00965692
52066	-0.000687001	0.0103
52105	-0.000801446	0.010085
52144	-0.000973113	0.00968599
52183	-0.000992187	0.00983003
52222	-0.00091589	0.0107189
52261	-0.000877742	0.0104885
52300	-0.000973113	0.0103917
52339	-0.000954038	0.0100948
52378	-0.00091589	0.0109138
52417	-0.000801446	0.0107283
52456	-0.000896816	0.0106487
52495	-0.000954038	0.0101932
52534	-0.000954038	0.0107667
52573	-0.00091589	0.0110033
52612	-0.000763297	0.0109753
52651	-0.000839594	0.0106895
52690	-0.000992187	0.0106296
52729	-0.000839594	0.0114607
52768	-0.000725149	0.011172
52807	-0.000896816	0.0111157
52846	-0.000782372	0.0108053
52885	-0.000877742	0.0116366
52924	-0.000782372	0.0114231
52963	-0.000858668	0.0112495
53002	-0.000839594	0.010979
53041	-0.000992187	0.0113985
53080	-0.000877742	0.0117414
53119	-0.000877742	0.0114619
53158	-0.00091589	0.011153
53197	-0.000934964	0.0113136
53236	-0.00106848	0.0118708
53275	-0.00082052	0.0116446
53314	-0.000877742	0.0114685
53353	-0.000973113	0.0112339
53392	-0.000763297	0.0120003
53431	-0.000934964	0.0119205
53470	-0.00103033	0.0119382
53509	-0.000839594	0.0116375
53548	-0.000954038	0.0121639
53587	-0.000992187	0.0122004
53626	-0.000954038	0.0120833
53665	-0.000973113	0.0119538
53704	-0.000992187	0.0120218
53743	-0.000763297	0.0126223
53782	-0.000782372	0.0122348
53821	-0.000954038	0.0123696
53860	-0.000896816	0.0121471
53899	-0.000934964	0.0130992
53938	-0.000954038	0.0129419
53977	-0.000973113	0.0128103
54016	-2.00082	-67.5474
54055	-2.00082	-22.0097
54094	-2.00076	-12.8849
54133	-2.00087	-9.02431
54172	-2.00095	-7.00122
54211	-2.00082	-5.83861
54250	-2.00078	-5.03367
54289	-2.0008	-4.39901
54328	-2.00091	-3.95596
54367	-2.00087	-3.58835
54406	-2.00087	-3.35927
54445	-2.0008	-3.09232
54484	-2.00085	-2.91262
54523	-2.00089	-2.73486
54562	-2.00085	-2.63891
54601	-2.00091	-2.53013
54640	-2.00099	-2.39959
54679	-2.00091	-2.305
54718	-2.00084	-2.26469
54757	-2.00084	-2.18918
54796	-2.00095	-2.11122
54835	-2.0008	-2.05973
54874	-2.00084	-2.01746
54913	-0.00082052	9.93965
54952	-0.000973113	1.74863
54991	-0.000839594	1.00245
55030	-0.000706075	0.747505
55069	-0.000896816	0.634292
55108	-0.000858668	0.548554
55147	-0.000839594	0.490751
55186	-0.000877742	0.445667
55225	-0.000858668	0.417349
55264	-0.000934964	0.391529
55303	-0.000992187	0.363039
55342	-0.000954038	0.342429
55381	-0.000839594	0.325047
55420	-0.000954038	0.314986
55459	-0.000801446	0.295873
55498	-0.000877742	0.282467
55537	-0.00101126	0.269607
55576	-0.000782372	0.26456
55615	-0.00091589	0.252209
55654	-0.000954038	0.242015
55693	-0.000896816	0.233537
55732	-0.000973113	0.229093
55771	-0.000858668	0.22345
55810	-0.000877742	0.214343
55849	-0.000992187	0.208224
55888	-0.000954038	0.203048
55927	-0.000934964	0.202184
55966	-0.000934964	0.194998
56005	-0.000763297	0.190899
56044	-0.00101126	0.186353
56083	-0.000744223	0.187082
56122	-0.000801446	0.182092
56161	-0.000801446	0.17856
56200	-0.000934964	0.175246
56239	-0.000877742	0.17509
56278	-0.000973113	0.173489
56317	-0.000973113	0.169348
56356	-0.000934964	0.167055
56395	-0.00103033	0.165424
56434	-0.000896816	0.166202
56473	-0.000858668	0.161862
56512	-0.00082052	0.159699
56551	-0.000954038	0.157216
56590	-0.000858668	0.158887
56629	-0.000934964	0.155512
56668	-0.00082052	0.153012
56707	-0.000858668	0.150554
56746	-0.000763297	0.150934
56785	-0.00091589	0.149243
56824	-0.000858668	0.145779
56863	-0.000954038	0.14368
56902	-0.000896816	0.142087
56941	-0.00082052	0.142461
56980	-0.00091589	0.138406
57019	-0.000877742	0.136406
57058	-0.000858668	0.134279
57097	-0.00091589	0.135491
57136	-0.000992187	0.132316
57175	-0.00091589	0.130093
57214	-0.000954038	0.127686
57253	-0.00091589	0.127829
57292	-0.000954038	0.126004
57331	-0.000858668	0.123171
57370	-0.00108756	0.121077
57409	-0.00091589	0.119726
57448	-0.00091589	0.119934
57487	-0.000839594	0.116818
57526	-0.00091589	0.11489
57565	-0.000896816	0.112935
57600	-0.000839594	0.111769