File: Data_30_Experiment/CA_001_C01.txt
time/s	Ewe/V	<I>/mA
1	1.49962	408.238
38	1.49955	43.4308
75	1.49949	38.6181
112	1.49959	32.8698
149	1.49941	27.8373
186	1.49949	24.201
223	1.49949	21.4998
260	1.49964	19.4868
297	1.49934	17.8465
334	1.4994	16.5133
371	1.49953	15.3914
408	1.49943	14.4141
445	1.49932	13.5716
482	1.49959	12.7962
519	1.49955	12.0982
556	1.49953	11.4672
593	1.49955	10.8874
630	1.49959	10.3597
667	1.49951	9.87951
704	1.49941	9.45027
741	1.49974	9.06746
778	1.4994	8.71753
815	1.49951	8.37804
852	1.49955	8.07475
889	1.49947	7.80388
926	1.49941	7.54471
963	1.49966	7.29753
1000	1.49953	7.07869
1037	1.49947	6.86926
1074	1.49941	6.67655
1111	1.49959	6.50328
1148	1.49959	6.34764
1185	1.49947	6.18796
1221.95	-0.000840404	-1.55112
1258.95	-0.000916701	0.194133
1295.95	-0.000878553	0.347328
1332.95	-0.000878553	0.266968
1369.95	-0.00106929	0.211979
1406.95	-0.000992997	0.170678
1443.95	-0.000973923	0.142316
1480.95	-0.000840404	0.125779
1517.95	-0.00101207	0.116616
1554.95	-0.000954849	0.110502
1591.95	-0.000992997	0.106295
1628.95	-0.000802256	0.102407
1665.95	-0.000935775	0.0991138
1702.95	-0.000973923	0.0961854
1739.95	-0.00082133	0.0933684
1776.95	-0.000992997	0.0893525
1813.95	-0.00105022	0.0828665
1850.95	-0.00082133	0.0747062
1887.95	-0.000802256	0.0694807
1924.95	-0.000706886	0.068059
1961.95	-0.00105022	0.0681751
1998.95	-0.000916701	0.0683585
2035.95	-0.00101207	0.067806
2072.95	-0.000878553	0.067522
2109.95	-0.000916701	0.0673208
2146.95	-0.00101207	0.0667738
2183.95	-0.000973923	0.0653799
2220.95	-0.000802256	0.0623898
2257.95	-0.000859479	0.0577714
2294.95	-0.000973923	0.0535915
2331.95	-0.000859479	0.0525829
2368.95	-0.000840404	0.0531649
2405.95	-0.00082133	0.0534863
2442.95	-0.000954849	0.0535332
2479.95	-0.000954849	0.0538046
2516.95	-0.00101207	0.0539357
2553.95	-0.00103115	0.0542592
2590.95	-0.00105022	0.0540295
2627.95	-0.00105022	0.0527242
2664.95	-0.000897627	0.0498082
2701.95	-0.00101207	0.0459382
2738.95	-0.000916701	0.0438339
2775.95	-0.000783182	0.0440653
2812.95	-0.000916701	0.0449764
2849.95	-0.000859479	0.0458772
2886.95	-0.000897627	0.0460972
2923.95	-0.00101207	0.0463485
2960.95	-0.00105022	0.0463654
2997.95	-0.000935775	0.0467177
3034.95	-0.00116466	0.046472
3071.95	-0.000935775	0.0448347
3108.95	-0.000878553	0.0418319
3145.95	-0.000973923	0.0396907
3182.95	-0.000859479	0.0396696
3219.95	-0.000954849	0.0404744
3256.95	-0.000878553	0.0412681
3293.95	-0.000897627	0.0420674
3330.95	-0.000840404	0.0424824
3367.95	-0.000897627	0.0427666
3404.95	-0.00110744	0.0429916
3441.95	-0.000802256	0.0429029
3478.95	-0.00105022	0.0421287
3515.95	-0.000954849	0.0399501
3552.95	-0.000935775	0.0376249
3589.95	-0.000954849	0.0369964
3626.95	-0.000916701	0.0376454
3663.95	-0.000916701	0.0386742
3700.95	-0.000897627	0.0394468
3737.95	-0.000859479	0.0397899
3774.95	-0.00103115	0.0401161
3811.95	-0.000954849	0.0402336
3848.95	-0.000916701	0.0402328
3885.95	-0.00101207	0.0402313
3922.95	-0.000783182	0.0387723
3959.95	-0.000764108	0.0365292
3996.95	-0.000840404	0.035568
4033.95	-0.000954849	0.0357953
4070.95	-0.000878553	0.0365953
4107.95	-0.000973923	0.0374819
4144.95	-0.00082133	0.0377363
4181.95	-0.000935775	0.0381525
4218.95	-0.000897627	0.0383941
4255.95	-0.000973923	0.0385639
4292.95	-0.000916701	0.0383177
4329.95	-0.000840404	0.0377779
4366.95	-0.000897627	0.0359541
4403.95	-0.000973923	0.0344895
4440.95	-0.000954849	0.0345072
4477.95	-0.00101207	0.0350474
4514.95	-0.000802256	0.0357458
4551.95	-0.000992997	0.0363587
4588.95	-0.000897627	0.0364715
4625.95	-0.00110744	0.0367729
4662.95	-0.000954849	0.0368651
4699.95	-0.000916701	0.0368104
4736.95	-0.000764108	0.0366192
4773.95	-0.000973923	0.035656
4810.95	-0.00108837	0.0339611
4847.95	-0.000897627	0.0336888
4884.95	-0.00072596	0.03411
4921.95	-0.000878553	0.0346006
4958.95	-0.00103115	0.0350234
4995.95	-0.000878553	0.0352398
5032.95	-0.000878553	0.0354092
5069.95	-0.000878553	0.0354922
5106.95	-0.00101207	0.0353759
5143.95	-0.00101207	0.0354764
5180.95	-0.00082133	0.0350739
5217.95	-0.000802256	0.0334758
5254.95	-0.000802256	0.0325571
5291.95	-0.000878553	0.0327878
5328.95	-0.000897627	0.0333093
5365.95	-0.00108837	0.0338176
5402.95	-0.000935775	0.0341734
5439.95	-0.000859479	0.0344778
5476.95	-0.000840404	0.0346171
5513.95	-0.000878553	0.0346619
5550.95	-0.00072596	0.0348034
5587.95	-0.000897627	0.0347108
5624.95	-0.000897627	0.0336051
5661.95	-0.00110744	0.0322832
5698.95	-0.000935775	0.0322413
5735.95	-0.000954849	0.0327037
5772.95	-0.000878553	0.033128
5809.95	-0.00105022	0.0334451
5846.95	-0.000859479	0.0337241
5883.95	-0.000954849	0.033864
5920.95	-0.000992997	0.0341296
5957.95	-0.000992997	0.0342381
5994.95	-0.000859479	0.034083
6031.95	-0.000954849	0.0337066
6068.95	-0.000840404	0.032409
6105.95	-0.000897627	0.0320532
6142.95	-0.000783182	0.0322193
6179.95	-0.00105022	0.032644
6216.95	-0.000916701	0.0328946
6253.95	-0.000897627	0.0332375
6290.95	-0.000954849	0.0333245
6327.95	-0.000935775	0.0334919
6364.95	-0.000973923	0.0336627
6401.95	-0.000973923	0.0338031
6438.95	-0.000897627	0.0338724
6475.95	-0.00082133	0.0327847
6512.95	-0.000859479	0.0319742
6549.95	-0.00105022	0.0320772
6586.95	-0.000878553	0.0324759
6623.95	-0.000973923	0.032715
6660.95	-0.000916701	0.0329802
6697.95	-0.000802256	0.0331738
6734.95	-0.000897627	0.0333096
6771.95	-0.000859479	0.0331789
6808.95	-0.000916701	0.0333386
6845.95	-0.000992997	0.0335721
6882.95	-0.000897627	0.0328557
6919.95	-0.000878553	0.031902
6956.95	-0.000878553	0.0318609
6993.95	-0.000878553	0.0318776
7030.95	-0.000840404	0.0319292
7067.95	-0.000992997	0.0322829
7104.95	-0.000916701	0.0325907
7141.95	-0.000897627	0.0328024
7178.95	-0.000878553	0.0329289
7215.95	-0.000954849	0.033046
7252.95	-0.00105022	0.0333157
7289.95	-0.000897627	0.0330355
7326.95	-0.000783182	0.0318882
7363.95	-0.000897627	0.0312924
7400.95	-0.00108837	0.0311935
7437.95	-0.000897627	0.0314671
7474.95	-0.000954849	0.0317864
7511.95	-0.000897627	0.0321034
7548.95	-0.00082133	0.0321028
7585.95	-0.000992997	0.0320747
7622.95	-0.000916701	0.0322648
7659.95	-0.000897627	0.0324942
7696.95	-0.000897627	0.0321643
7733.95	-0.000954849	0.0312017
7770.95	-0.000840404	0.0305692
7807.95	-0.00101207	0.0303371
7844.95	-0.00105022	0.0306513
7881.95	-0.000649663	0.0312834
7918.95	-0.00105022	0.0316919
7955.95	-0.00108837	0.0316861
7992.95	-0.000935775	0.0316835
8029.95	-0.000973923	0.0316908
8066.95	-0.000992997	0.0318499
8103.95	-0.000916701	0.0321413
8140.95	-0.000897627	0.0316065
8177.95	-0.000954849	0.0306723
8214.95	-0.000878553	0.030134
8251.95	-0.000935775	0.0303547
8288.95	-0.000745034	0.0307666
8325.95	-0.000878553	0.0309875
8362.95	-0.000954849	0.0312201
8399.95	-0.000954849	0.0313417
8436.95	-0.00105022	0.0312492
8473.95	-0.000897627	0.0312773
8510.95	-0.000840404	0.0313456
8547.95	-0.00106929	0.0310681
8584.95	-0.000840404	0.0303536
8621.95	-0.000973923	0.0301191
8658.95	-0.000897627	0.0303725
8695.95	-0.00103115	0.0306372
8732.95	-0.000935775	0.0307423
8769.95	-0.00101207	0.0307428
8806.95	-0.000897627	0.0307755
8843.95	-0.00103115	0.0309054
8880.95	-0.000764108	0.0309049
8917.95	-0.00072596	0.031178
8954.95	-0.00106929	0.0311987
8991.95	-0.000916701	0.0305931
9028.95	-0.000954849	0.0301713
9065.95	-0.000992997	0.0301503
9102.95	-0.000859479	0.0303981
9139.95	-0.000973923	0.0305082
9176.95	-0.000973923	0.0305329
9213.95	-0.000935775	0.0305789
9250.95	-0.000935775	0.0306321
9287.95	-0.000840404	0.0308335
9324.95	-0.000878553	0.0309007
9361.95	-0.000859479	0.0311179
9398.95	-0.000878553	0.0305483
9435.95	-0.00106929	0.029845
9472.95	-0.000954849	0.02974
9509.95	-0.00108837	0.029836
9546.95	-0.00112652	0.0299303
9583.95	-0.000935775	0.0300301
9620.95	-0.000859479	0.0302791
9657.95	-0.00112652	0.0303487
9694.95	-0.000859479	0.0303479
9731.95	-0.000802256	0.0302784
9768.95	-0.000859479	0.0307523
9805.95	-0.000859479	0.0307808
9842.95	-0.00082133	0.0300932
9879.95	-0.000878553	0.0296304
9916.95	-0.000878553	0.0296564
9953.95	-0.000992997	0.0297052
9990.95	-0.00082133	0.0298521
10028	-0.000954849	0.0300336
10065	-0.000973923	0.0300351
10102	-0.00106929	0.0300289
10139	-0.000840404	0.0301419
10176	-0.00112652	0.0303942
10213	-2.00089	-96.6769
10250	-2.00086	-43.6739
10287	-2.00093	-29.3482
10324	-2.00087	-21.8916
10361	-2.0007	-17.1902
10398	-2.00087	-13.9484
10435	-2.00101	-11.5571
10472	-2.00099	-9.80063
10509	-2.00099	-8.46936
10546	-2.00095	-7.45942
10583	-2.00086	-6.67015
10620	-2.00091	-6.04225
10657	-2.00082	-5.51991
10694	-2.00074	-5.12361
10731	-2.00084	-4.77152
10768	-2.00101	-4.47952
10805	-2.00089	-4.22715
10842	-2.00095	-4.00769
10879	-2.00101	-3.81316
10916	-2.00082	-3.64222
10953	-2.00089	-3.49469
10990	-2.00089	-3.36777
11027	-2.00087	-3.24879
11064	-2.00086	-3.13956
11101	-0.000783182	156.129
11138	-0.00110744	3.54985
11175	-0.000802256	2.24526
11212	-0.000802256	1.84422
11249	-0.000954849	1.64583
11286	-0.000878553	1.51411
11323	-0.000840404	1.41237
11360	-0.000935775	1.33315
11397	-0.000973923	1.27446
11434	-0.000954849	1.23233
11471	-0.000954849	1.18716
11508	-0.000935775	1.13262
11545	-0.000878553	1.08634
11582	-0.000745034	1.05018
11619	-0.000935775	1.02051
11656	-0.000973923	0.993473
11693	-0.000935775	0.968116
11730	-0.00105022	0.944268
11767	-0.00103115	0.92329
11804	-0.000992997	0.904905
11841	-0.000840404	0.892619
11878	-0.000992997	0.878518
11915	-0.000859479	0.852749
11952	-0.000840404	0.826881
11989	-0.000954849	0.808056
12026	-0.000916701	0.792606
12063	-0.000992997	0.778324
12100	-0.00105022	0.764474
12137	-0.00105022	0.750887
12174	-0.000897627	0.738458
12211	-0.000840404	0.72796
12248	-0.000973923	0.720663
12285	-0.000973923	0.715149
12322	-0.000916701	0.700379
12359	-0.000973923	0.680843
12396	-0.00101207	0.666221
12433	-0.000840404	0.655486
12470	-0.000973923	0.646085
12507	-0.000878553	0.637012
12544	-0.00103115	0.627768
12581	-0.00082133	0.618747
12618	-0.000916701	0.610678
12655	-0.000973923	0.604848
12692	-0.000992997	0.601735
12729	-0.000935775	0.593512
12766	-0.000859479	0.578206
12803	-0.000783182	0.566207
12840	-0.000973923	0.557062
12877	-0.000783182	0.550114
12914	-0.000802256	0.543061
12951	-0.000916701	0.53594
12988	-0.000916701	0.529357
13025	-0.000973923	0.523096
13062	-0.000859479	0.518099
13099	-0.000897627	0.515611
13136	-0.000916701	0.511809
13173	-0.000973923	0.500477
13210	-0.00108837	0.489399
13247	-0.000859479	0.479824
13284	-0.000992997	0.474003
13321	-0.00101207	0.468802
13358	-0.000992997	0.4633
13395	-0.000916701	0.45774
13432	-0.000859479	0.452516
13469	-0.000878553	0.448247
13506	-0.00106929	0.445727
13543	-0.000897627	0.443566
13580	-0.000954849	0.435942
13617	-0.000840404	0.426036
13654	-0.000859479	0.418918
13691	-0.000897627	0.413768
13728	-0.000916701	0.409785
13765	-0.000878553	0.405294
13802	1.49966	194.859
13839	1.49959	27.627
13876	1.49959	17.7206
13913	1.49955	14.0005
13950	1.49943	12.0717
13987	1.4996	10.9039
14024	1.49945	10.1147
14061	1.4996	9.53773
14098	1.49953	9.09866
14135	1.49955	8.74527
14172	1.4996	8.45695
14209	1.4993	8.20622
14246	1.49962	7.98408
14283	1.49953	7.79067
14320	1.49957	7.61789
14357	1.49957	7.4508
14394	1.49941	7.3039
14431	1.49957	7.17142
14468	1.49947	7.06565
14505	1.49966	6.93461
14542	1.49955	6.82371
14579	1.49964	6.71325
14616	1.49962	6.62017
14653	1.49959	6.52838
14690	1.49962	6.43971
14727	1.49943	6.35483
14764	1.49943	6.25933
14801	1.49943	6.1666
14838	1.49959	6.08614
14875	1.49955	6.01766
14912	1.49962	5.94753
14949	1.49949	5.88036
14986	1.49938	5.81411
15023	-0.00101207	-1.718
15060	-0.000954849	-0.210422
15097	-0.000954849	0.161867
15134	-0.00105022	0.211126
15171	-0.000859479	0.209969
15208	-0.00103115	0.199531
15245	-0.00114559	0.18575
15282	-0.000935775	0.170053
15319	-0.000897627	0.159053
15356	-0.00112652	0.151644
15393	-0.000973923	0.145869
15430	-0.00103115	0.141093
15467	-0.000992997	0.136554
15504	-0.00105022	0.133208
15541	-0.000859479	0.129494
15578	-0.000973923	0.125259
15615	-0.000916701	0.122285
15652	-0.000916701	0.119611
15689	-0.00106929	0.114941
15726	-0.00103115	0.110197
15763	-0.00106929	0.107463
15800	-0.000878553	0.106088
15837	-0.000802256	0.104617
15874	-0.00106929	0.102857
15911	-0.00108837	0.101273
15948	-0.00103115	0.0996326
15985	-0.00103115	0.0983245
16022	-0.000840404	0.0972296
16059	-0.000954849	0.0961898
16096	-0.00105022	0.0936864
16133	-0.000954849	0.0903525
16170	-0.000916701	0.0883121
16207	-0.000897627	0.087222
16244	-0.000878553	0.0864823
16281	-0.000916701	0.0857032
16318	-0.000954849	0.0847932
16355	-0.000897627	0.0837305
16392	-0.000878553	0.0827938
16429	-0.00103115	0.0820716
16466	-0.00082133	0.0816436
16503	-0.000916701	0.0806602
16540	-0.00101207	0.0778697
16577	-0.00103115	0.0758034
16614	-0.000878553	0.0745957
16651	-0.000916701	0.0741544
16688	-0.000954849	0.0737298
16725	-0.000973923	0.0731315
16762	-0.00103115	0.0724223
16799	-0.000973923	0.0718147
16836	-0.000954849	0.0713034
16873	-0.000878553	0.0709703
16910	-0.000630589	0.0708212
16947	-0.00106929	0.0690866
16984	-0.000992997	0.0668744
17021	-0.000783182	0.0659768
17058	-0.00082133	0.0655204
17095	-0.00106929	0.0653071
17132	-0.000954849	0.0649329
17169	-0.000745034	0.0643582
17206	-0.000973923	0.0638952
17243	-0.000973923	0.0633261
17280	-0.000973923	0.0631477
17317	-0.000916701	0.0631536
17354	-0.00082133	0.0623916
17391	-0.00103115	0.0603704
17428	-0.000764108	0.0592911
17465	-0.00101207	0.0588514
17502	-0.000859479	0.0587685
17539	-0.00082133	0.0585457
17576	-0.000859479	0.0581165
17613	-0.00106929	0.0576732
17650	-0.000783182	0.0572768
17687	-0.000973923	0.0571074
17724	-0.000897627	0.0571808
17761	-0.000706886	0.0569034
17798	-0.000878553	0.0554364
17835	-0.000954849	0.0541348
17872	-0.00105022	0.0535606
17909	-0.000954849	0.0534329
17946	-0.000954849	0.0531853
17983	-0.000878553	0.0528036
18020	-0.000859479	0.052594
18057	-0.000783182	0.0524615
18094	-0.000935775	0.0523672
18131	-0.00082133	0.0524106
18168	-0.000897627	0.0525632
18205	-0.00101207	0.0515656
18242	-0.000802256	0.0500939
18279	-0.00112652	0.0494749
18316	-0.00072596	0.0493717
18353	-0.000859479	0.0493502
18390	-0.000802256	0.0489668
18427	-0.000840404	0.048742
18464	-0.000764108	0.0485399
18501	-0.00103115	0.0482864
18538	-0.000916701	0.0483046
18575	-0.000859479	0.0486029
18612	-0.000745034	0.0483
18649	-0.000802256	0.0470923
18686	-0.00103115	0.0461784
18723	-0.000897627	0.0459071
18760	-0.000802256	0.0459141
18797	-0.000859479	0.0459023
18834	-0.000954849	0.0456223
18871	-0.000992997	0.0453534
18908	-0.00112652	0.0452108
18945	-0.000992997	0.0450137
18982	-0.000897627	0.0454018
19019	-0.000916701	0.0455292
19056	-0.00101207	0.0445711
19093	-0.000859479	0.0437223
19130	-0.000916701	0.0432615
19167	-0.00103115	0.0431721
19204	-0.000859479	0.0430766
19241	-0.00108837	0.0429893
19278	-0.000840404	0.0427724
19315	-0.00103115	0.0425692
19352	-0.000935775	0.0424125
19389	-0.00106929	0.042614
19426	-0.000916701	0.0430749
19463	-0.000859479	0.0425022
19500	-0.000935775	0.0412541
19537	-0.000973923	0.0408256
19574	-0.000992997	0.0405376
19611	-0.00105022	0.0406986
19648	-0.000935775	0.0407586
19685	-0.000935775	0.0404351
19722	-0.000668738	0.0403088
19759	-0.000954849	0.0400156
19796	-0.000916701	0.0399735
19833	-0.00114559	0.0404152
19870	-0.000840404	0.0401828
19907	-0.000859479	0.0392066
19944	-0.00072596	0.0385466
19981	-0.000992997	0.0382601
20018	-0.000878553	0.0381583
20055	-0.000878553	0.0381435
20092	-0.000916701	0.0380807
20129	-0.00101207	0.0379945
20166	-0.00101207	0.0378316
20203	-0.000992997	0.0378564
20240	-0.000916701	0.038057
20277	-0.00103115	0.0384514
20314	-0.00103115	0.0376962
20351	-0.00110744	0.0368412
20388	-0.00106929	0.0365036
20425	-0.000878553	0.036462
20462	-0.000935775	0.0363182
20499	-0.000973923	0.0362097
20536	-0.000878553	0.0361506
20573	-0.00101207	0.0360185
20610	-0.000687812	0.0358898
20647	-0.00103115	0.0360567
20684	-0.000783182	0.0365957
20721	-0.000878553	0.0362235
20758	-0.000783182	0.0352108
20795	-0.000802256	0.0347563
20832	-0.000973923	0.0345344
20869	-0.00105022	0.0345631
20906	-0.000878553	0.0345764
20943	-0.000878553	0.0345239
20980	-0.000973923	0.0343939
21017	-0.000992997	0.034343
21054	-0.000897627	0.0342708
21091	-0.000935775	0.0347764
21128	-0.000935775	0.034711
21165	-0.000954849	0.0340145
21202	-0.000916701	0.0333793
21239	-0.000764108	0.033143
21276	-0.000878553	0.033226
21313	-0.000802256	0.0331823
21350	-0.000764108	0.0330544
21387	-0.00082133	0.0329367
21424	-0.000954849	0.0328069
21461	-0.000973923	0.0327836
21498	-0.00101207	0.0330675
21535	-0.000992997	0.0334719
21572	-0.000840404	0.0328078
21609	-0.00108837	0.0321025
21646	-0.000897627	0.0318974
21683	-0.000973923	0.0316786
21720	-0.000954849	0.0317119
21757	-0.000935775	0.0316807
21794	-0.000859479	0.0315843
21831	-0.00103115	0.0314775
21868	-0.000840404	0.0314482
21905	-0.000878553	0.0316062
21942	-0.000878553	0.031948
21979	-0.000897627	0.0316869
22016	-0.00116466	0.0309373
22053	-0.000859479	0.0305727
22090	-0.00101207	0.0304498
22127	-0.000840404	0.0305466
22164	-0.000840404	0.0305367
22201	-0.000916701	0.0304484
22238	-0.000897627	0.0303306
22275	-0.000916701	0.0301951
22312	-0.000973923	0.0301572
22349	-0.000992997	0.0305562
22386	-0.000802256	0.0306549
22423	-0.000840404	0.0299991
22460	-0.000935775	0.0294542
22497	-0.000954849	0.0292463
22534	-0.000954849	0.0292427
22571	-0.000973923	0.0292954
22608	-0.00105022	0.0291559
22645	-0.000916701	0.0291078
22682	-0.000992997	0.0289306
22719	-0.000916701	0.0289286
22756	-0.000954849	0.0293332
22793	-0.00106929	0.0297394
22830	-0.000897627	0.0293717
22867	-0.000859479	0.0286956
22904	-0.00106929	0.0283151
22941	-0.000840404	0.0282417
22978	-0.000783182	0.028125
23015	-0.000802256	0.0281562
23052	-0.00105022	0.0281539
23089	-0.000897627	0.028035
23126	-0.000745034	0.0278645
23163	-0.000897627	0.0279922
23200	-0.00101207	0.0285535
23237	-0.000859479	0.0283646
23274	-0.000954849	0.0277529
23311	-0.000840404	0.027454
23348	-0.00101207	0.0273384
23385	-0.000783182	0.0273202
23422	-0.00112652	0.0272246
23459	-0.000897627	0.0271422
23496	-0.000897627	0.0270888
23533	-0.000802256	0.0270737
23570	-0.000878553	0.0270805
23607	-0.000859479	0.0275523
23644	-0.000916701	0.0276698
23681	-0.00101207	0.0271446
23718	-0.000954849	0.0266609
23755	-0.00110744	0.0265261
23792	-0.000783182	0.0262875
23829	-0.000992997	0.0262949
23866	-0.00103115	0.0262337
23903	-0.00105022	0.0262813
23940	-0.000764108	0.0262664
23977	-0.000878553	0.026207
24014	-2.0008	-78.712
24051	-2.00091	-32.0244
24088	-2.00097	-19.8837
24125	-2.00086	-14.3789
24162	-2.00087	-11.2034
24199	-2.00107	-9.15145
24236	-2.00091	-7.72847
24273	-2.00103	-6.69562
24310	-2.00087	-5.923
24347	-2.00089	-5.33025
24384	-2.00084	-4.85546
24421	-2.00087	-4.49633
24458	-2.00112	-4.18792
24495	-2.0008	-3.91161
24532	-2.00084	-3.67911
24569	-2.00091	-3.48356
24606	-2.00089	-3.31527
24643	-2.00089	-3.16472
24680	-2.00089	-3.03313
24717	-2.00084	-2.92138
24754	-2.00076	-2.81221
24791	-2.00082	-2.71632
24828	-2.00095	-2.63396
24865	-2.00097	-2.56175
24902	-0.000935775	44.8008
24939	-0.000916701	2.93002
24976	-0.000878553	1.66175
25013	-0.000973923	1.27588
25050	-0.000783182	1.09102
25087	-0.000992997	0.976689
25124	-0.000878553	0.895344
25161	-0.000840404	0.83329
25198	-0.000840404	0.784251
25235	-0.000840404	0.745996
25272	-0.000878553	0.716813
25309	-0.000992997	0.685463
25346	-0.000687812	0.650137
25383	-0.00103115	0.621829
25420	-0.00105022	0.600314
25457	-0.00101207	0.583176
25494	-0.000954849	0.567621
25531	-0.00116466	0.553471
25568	-0.000973923	0.54082
25605	-0.000973923	0.529946
25642	-0.000783182	0.520696
25679	-0.000783182	0.515487
25716	-0.000840404	0.508301
25753	-0.000840404	0.494389
25790	-0.000802256	0.47889
25827	-0.000973923	0.469682
25864	-0.000859479	0.462535
25901	-0.000878553	0.456204
25938	-0.000764108	0.450061
25975	-0.000802256	0.444049
26012	-0.000973923	0.438583
26049	-0.000878553	0.433905
26086	-0.000783182	0.431219
26123	-0.00082133	0.429236
26160	-0.000859479	0.421684
26197	-0.000897627	0.411784
26234	-0.000859479	0.404868
26271	-0.00101207	0.400062
26308	-0.000916701	0.396265
26345	-0.000878553	0.392402
26382	-0.00072596	0.388535
26419	-0.000840404	0.384744
26456	-0.00082133	0.381693
26493	-0.000878553	0.379782
26530	-0.00082133	0.379265
26567	-0.000935775	0.375499
26604	-0.000935775	0.367624
26641	-0.000878553	0.361153
26678	-0.000973923	0.357373
26715	-0.00108837	0.354614
26752	-0.00108837	0.351876
26789	-0.000916701	0.349018
26826	-0.00103115	0.346333
26863	-0.000992997	0.343719
26900	-0.000916701	0.341931
26937	-0.000916701	0.341719
26974	-0.000897627	0.340478
27011	-0.000840404	0.334487
27048	-0.000973923	0.328514
27085	-0.000954849	0.324963
27122	-0.000973923	0.322739
27159	-0.000916701	0.320556
27196	-0.000916701	0.318345
27233	-0.000859479	0.316045
27270	-0.000916701	0.313922
27307	-0.00116466	0.312462
27344	-0.000916701	0.312031
27381	-0.000897627	0.311763
27418	-0.000935775	0.307983
27455	-0.00103115	0.302443
27492	-0.000878553	0.298682
27529	-0.000802256	0.296317
27566	-0.000992997	0.29449
27603	1.49945	123.803
27640	1.49957	20.8327
27677	1.4994	12.6684
27714	1.49951	9.87007
27751	1.49957	8.54755
27788	1.49959	7.79817
27825	1.49953	7.34057
27862	1.49959	7.057
27899	1.49951	6.8499
27936	1.49953	6.67884
27973	1.49959	6.54512
28010	1.49959	6.43133
28047	1.49949	6.33826
28084	1.49957	6.26798
28121	1.49947	6.20145
28158	1.49949	6.11582
28195	1.4994	6.02447
28232	1.49947	5.96937
28269	1.49957	5.94285
28306	1.49941	5.91165
28343	1.49947	5.86533
28380	1.49959	5.81253
28417	1.49955	5.75556
28454	1.49966	5.69953
28491	1.49957	5.64895
28528	1.49962	5.58741
28565	1.49947	5.51452
28602	1.49936	5.43283
28639	1.49959	5.37114
28676	1.49953	5.3344
28713	1.49953	5.2978
28750	1.49951	5.25526
28787	1.49955	5.19095
28824	-0.000897627	-1.57272
28861	-0.00082133	-0.245842
28898	-0.000954849	0.0796639
28935	-0.000916701	0.129587
28972	-0.000954849	0.137824
29009	-0.000878553	0.13687
29046	-0.000935775	0.133272
29083	-0.000859479	0.12745
29120	-0.00105022	0.12093
29157	-0.000973923	0.115649
29194	-0.000992997	0.111557
29231	-0.000973923	0.109028
29268	-0.000935775	0.107261
29305	-0.000745034	0.105133
29342	-0.000992997	0.103215
29379	-0.00105022	0.101232
29416	-0.000859479	0.0989455
29453	-0.000935775	0.097475
29490	-0.000840404	0.0957424
29527	-0.000840404	0.092937
29564	-0.00101207	0.0899824
29601	-0.000878553	0.0878375
29638	-0.000859479	0.0865228
29675	-0.000840404	0.0853687
29712	-0.000954849	0.0840763
29749	-0.000897627	0.0827617
29786	-0.00082133	0.0814032
29823	-0.00103115	0.0802853
29860	-0.000859479	0.0794484
29897	-0.00108837	0.0790948
29934	-0.00101207	0.0776415
29971	-0.000687812	0.0752856
30008	-0.000916701	0.0736148
30045	-0.000973923	0.0727393
30082	-0.000859479	0.0718844
30119	-0.00101207	0.0713549
30156	-0.00103115	0.0703635
30193	-0.000916701	0.0696435
30230	-0.000802256	0.0692682
30267	-0.000935775	0.068778
30304	-0.000992997	0.0684871
30341	-0.00105022	0.0677994
30378	-0.000973923	0.0661209
30415	-0.000973923	0.0645546
30452	-0.000897627	0.0637933
30489	-0.000916701	0.0632764
30526	-0.000935775	0.0625696
30563	-0.00082133	0.0620909
30600	-0.000859479	0.0615438
30637	-0.000935775	0.0609903
30674	-0.000973923	0.0605564
30711	-0.00082133	0.0605006
30748	-0.000992997	0.0603579
30785	-0.000840404	0.0591815
30822	-0.00105022	0.05758
30859	-0.00082133	0.0567309
30896	-0.00082133	0.0560472
30933	-0.000992997	0.0558692
30970	-0.00082133	0.0556001
31007	-0.000935775	0.0552369
31044	-0.000878553	0.0548468
31081	-0.00114559	0.0545277
31118	-0.000973923	0.0545351
31155	-0.000935775	0.0548118
31192	-0.000916701	0.0542988
31229	-0.000802256	0.0528542
31266	-0.000802256	0.0520272
31303	-0.00082133	0.0515945
31340	-0.000783182	0.0514988
31377	-0.00082133	0.0514437
31414	-0.00105022	0.0512015
31451	-0.000916701	0.0507921
31488	-0.000897627	0.0506552
31525	-0.000935775	0.0503467
31562	-0.000954849	0.0503619
31599	-0.000897627	0.0501332
31636	-0.000992997	0.0491778
31673	-0.000935775	0.0482386
31710	-0.00101207	0.0476645
31747	-0.000802256	0.0474701
31784	-0.000878553	0.047203
31821	-0.000859479	0.046898
31858	-0.00103115	0.0465635
31895	-0.00103115	0.046406
31932	-0.000973923	0.0461652
31969	-0.000859479	0.0462139
32006	-0.000859479	0.046545
32043	-0.000878553	0.0457941
32080	-0.000992997	0.0447649
32117	-0.000859479	0.0441325
32154	-0.000916701	0.0437256
32191	-0.000916701	0.0437453
32228	-0.000954849	0.0435807
32265	-0.000954849	0.0432291
32302	-0.000973923	0.0430624
32339	-0.000973923	0.0428463
32376	-0.000897627	0.0426464
32413	-0.000916701	0.0429909
32450	-0.000859479	0.0429773
32487	-0.000802256	0.0419901
32524	-0.000783182	0.0412031
32561	-0.000859479	0.0408079
32598	-0.000973923	0.0406614
32635	-0.000935775	0.0405177
32672	-0.000954849	0.0403295
32709	-0.000764108	0.0401741
32746	-0.000954849	0.039901
32783	-0.000916701	0.0397316
32820	-0.00106929	0.0399187
32857	-0.000840404	0.0401398
32894	-0.000897627	0.0393625
32931	-0.000992997	0.0384933
32968	-0.000935775	0.0380574
33005	-0.000840404	0.0378908
33042	-0.00082133	0.0377786
33079	-0.000973923	0.0376616
33116	-0.00110744	0.0374763
33153	-0.000783182	0.0374291
33190	-0.000897627	0.0372583
33227	-0.000783182	0.0374413
33264	-0.00110744	0.0378533
33301	-0.000859479	0.0374203
33338	-0.000897627	0.0366352
33375	-0.000916701	0.0361286
33412	-0.000802256	0.0358961
33449	-0.000878553	0.0358128
33486	-0.000840404	0.0356648
33523	-0.00101207	0.0355443
33560	-0.000897627	0.035465
33597	-0.000859479	0.0352821
33634	-0.000935775	0.0352995
33671	-0.00101207	0.0356592
33708	-0.000973923	0.0356993
33745	-0.00103115	0.03498
33782	-0.000916701	0.0344704
33819	-0.000897627	0.0341465
33856	-0.000992997	0.0340544
33893	-0.00101207	0.033963
33930	-0.00082133	0.0337403
33967	-0.000973923	0.0335122
34004	-0.000859479	0.0334369
34041	-0.000802256	0.0334124
34078	-0.00103115	0.0337577
34115	-0.000935775	0.0340909
34152	-0.000954849	0.0335379
34189	-0.00106929	0.0327928
34226	-0.000992997	0.0325885
34263	-0.00082133	0.0324175
34300	-0.000935775	0.0323467
34337	-0.000878553	0.0322197
34374	-0.000916701	0.0319489
34411	-0.000954849	0.0317516
34448	-0.000916701	0.0315938
34485	-0.000840404	0.0318607
34522	-0.000954849	0.0321297
34559	-0.000916701	0.0317182
34596	-0.00105022	0.0309945
34633	-0.000954849	0.0306517
34670	-0.00108837	0.0304724
34707	-0.000992997	0.0304954
34744	-0.000878553	0.0304383
34781	-0.000706886	0.0303045
34818	-0.000859479	0.0300904
34855	-0.000935775	0.0299318
34892	-0.00082133	0.029927
34929	-0.000973923	0.030415
34966	-0.000973923	0.0303203
35003	-0.000859479	0.0299197
35040	-0.000859479	0.0293776
35077	-0.000954849	0.0291832
35114	-0.00103115	0.0290067
35151	-0.000954849	0.0290395
35188	-0.000897627	0.0289497
35225	-0.00105022	0.0287443
35262	-0.00101207	0.0284664
35299	-0.000954849	0.0284362
35336	-0.000935775	0.0285099
35373	-0.00082133	0.0292001
35410	-0.000878553	0.0287545
35447	-0.000954849	0.0281744
35484	-0.000992997	0.027762
35521	-0.000992997	0.0277943
35558	-0.00103115	0.0277867
35595	-0.000630589	0.0277319
35632	-0.00110744	0.0276442
35669	-0.000859479	0.0275123
35706	-0.000916701	0.0274272
35743	-0.000802256	0.027602
35780	-0.000916701	0.0281675
35817	-0.000992997	0.0279786
35854	-0.000916701	0.0272283
35891	-0.000973923	0.0268811
35928	-0.000992997	0.0267882
35965	-0.000973923	0.0269054
36002	-0.000992997	0.0267898
36039	-0.000859479	0.0266421
36076	-0.000954849	0.0265322
36113	-0.000935775	0.0263928
36150	-0.000897627	0.0264034
36187	-0.000973923	0.026972
36224	-0.00106929	0.0270626
36261	-0.00103115	0.0264558
36298	-0.000783182	0.0260093
36335	-0.00114559	0.0258306
36372	-0.000954849	0.0257443
36409	-0.000954849	0.0257222
36446	-0.000897627	0.0255058
36483	-0.000973923	0.0254483
36520	-0.000916701	0.025416
36557	-0.00082133	0.0253854
36594	-0.000859479	0.0255887
36631	-0.00082133	0.0259861
36668	-0.000897627	0.025613
36705	-0.000992997	0.0251044
36742	-0.000935775	0.0248862
36779	-0.000802256	0.0248724
36816	-0.000973923	0.0248476
36853	-0.000878553	0.0247771
36890	-0.00101207	0.024659
36927	-0.000859479	0.0245413
36964	-0.00108837	0.0244173
37001	-0.000840404	0.0246375
37038	-0.000916701	0.024984
37075	-0.000878553	0.0249196
37112	-0.000859479	0.0243663
37149	-0.000783182	0.0240851
37186	-0.000935775	0.0238865
37223	-0.000916701	0.0239007
37260	-0.000859479	0.0238675
37297	-0.000859479	0.0237531
37334	-0.000992997	0.0236784
37371	-0.000840404	0.023603
37408	-0.00101207	0.0236925
37445	-0.000840404	0.0241048
37482	-0.000954849	0.024315
37519	-0.00112652	0.0237357
37556	-0.00082133	0.0232922
37593	-0.000935775	0.0232036
37630	-0.000935775	0.0231297
37667	-0.000840404	0.0231941
37704	-0.000706886	0.023099
37741	-0.000897627	0.023092
37778	-0.000916701	0.0230078
37815	-2.00084	-61.5727
37852	-2.0008	-24.8351
37889	-2.00089	-15.6923
37926	-2.00095	-11.4595
37963	-2.00076	-9.04329
38000	-2.00089	-7.48106
38037	-2.00093	-6.39371
38074	-2.00086	-5.59712
38111	-2.00086	-4.99196
38148	-2.00101	-4.5412
38185	-2.00089	-4.16635
38222	-2.0008	-3.86433
38259	-2.00086	-3.618
38296	-2.00089	-3.40944
38333	-2.00087	-3.22295
38370	-2.00105	-3.06387
38407	-2.00095	-2.93288
38444	-2.00093	-2.81214
38481	-2.00084	-2.71077
38518	-2.00089	-2.62546
38555	-2.00093	-2.54846
38592	-2.00095	-2.4745
38629	-2.00086	-2.4117
38666	-2.00087	-2.36011
38703	-0.00108837	36.9477
38740	-0.00072596	2.78191
38777	-0.000897627	1.47712
38814	-0.000916701	1.08227
38851	-0.000897627	0.897709
38888	-0.000859479	0.788282
38925	-0.000916701	0.71267
38962	-0.00105022	0.655814
38999	-0.000973923	0.610665
39036	-0.000973923	0.574106
39073	-0.00082133	0.545289
39110	-0.000897627	0.521994
39147	-0.000935775	0.497836
39184	-0.000802256	0.470018
39221	-0.000897627	0.448609
39258	-0.000878553	0.431657
39295	-0.000878553	0.417839
39332	-0.00108837	0.405505
39369	-0.00101207	0.393919
39406	-0.000935775	0.383981
39443	-0.000935775	0.374703
39480	-0.000954849	0.367292
39517	-0.000916701	0.361917
39554	-0.000897627	0.355977
39591	-0.000840404	0.346164
39628	-0.000878553	0.337282
39665	-0.000878553	0.330842
39702	-0.000916701	0.325826
39739	-0.000897627	0.321575
39776	-0.000992997	0.317336
39813	-0.000916701	0.313262
39850	-0.000935775	0.309647
39887	-0.000878553	0.306199
39924	-0.000935775	0.304235
39961	-0.00108837	0.302603
39998	-0.000897627	0.297958
40035	-0.000954849	0.291885
40072	-0.000935775	0.287596
40109	-0.000897627	0.284525
40146	-0.000897627	0.282082
40183	-0.000935775	0.279803
40220	-0.000973923	0.277127
40257	-0.000859479	0.274846
40294	-0.000916701	0.272873
40331	-0.00072596	0.271491
40368	-0.000859479	0.270927
40405	-0.000935775	0.268612
40442	-0.000840404	0.263999
40479	-0.000973923	0.260155
40516	-0.000916701	0.257713
40553	-0.000897627	0.255949
40590	-0.000859479	0.254361
40627	-0.000973923	0.252515
40664	-0.000840404	0.25084
40701	-0.000935775	0.249282
40738	-0.000954849	0.248118
40775	-0.000954849	0.247906
40812	-0.000840404	0.246884
40849	-0.000802256	0.243372
40886	-0.00108837	0.239676
40923	-0.00106929	0.237562
40960	-0.000973923	0.23609
40997	-0.000840404	0.234882
41034	-0.000973923	0.233594
41071	-0.000916701	0.232184
41108	-0.000935775	0.230689
41145	-0.000859479	0.229791
41182	-0.00072596	0.22932
41219	-0.000973923	0.229403
41256	-0.000840404	0.227126
41293	-0.00101207	0.223364
41330	-0.000859479	0.221174
41367	-0.000935775	0.219637
41404	1.49934	87.9471
41441	1.4994	18.0033
41478	1.4996	11.1138
41515	1.49964	8.70637
41552	1.49953	7.55466
41589	1.49955	6.83375
41626	1.49947	6.38547
41663	1.49941	6.11763
41700	1.49934	5.96821
41737	1.49968	5.82945
41774	1.4996	5.70123
41811	1.49964	5.59531
41848	1.49949	5.49391
41885	1.49959	5.40982
41922	1.49953	5.34544
41959	1.49964	5.27283
41996	1.49972	5.19266
42033	1.49943	5.11274
42070	1.49964	5.07992
42107	1.49941	5.06628
42144	1.4997	5.03543
42181	1.49938	4.98566
42218	1.49943	4.92147
42255	1.49955	4.83301
42292	1.49941	4.77328
42329	1.49962	4.71047
42366	1.49968	4.64627
42403	1.49951	4.5719
42440	1.49949	4.48958
42477	1.49941	4.43285
42514	1.49951	4.39834
42551	1.49936	4.36312
42588	1.49959	4.3044
42625	-0.000897627	-1.36722
42662	-0.00101207	-0.215639
42699	-0.000859479	0.0195286
42736	-0.000954849	0.0610359
42773	-0.000764108	0.0709493
42810	-0.000992997	0.0744272
42847	-0.000935775	0.0752672
42884	-0.000992997	0.0749468
42921	-0.00101207	0.0739678
42958	-0.000878553	0.0721087
42995	-0.000935775	0.0700762
43032	-0.00101207	0.068889
43069	-0.00114559	0.0683801
43106	-0.00106929	0.0679439
43143	-0.000897627	0.067065
43180	-0.00114559	0.065963
43217	-0.000878553	0.0648991
43254	-0.000954849	0.0640758
43291	-0.00110744	0.0635985
43328	-0.000859479	0.0633306
43365	-0.000916701	0.0620366
43402	-0.000954849	0.0605389
43439	-0.000973923	0.0593828
43476	-0.00106929	0.0585981
43513	-0.000954849	0.0582764
43550	-0.000706886	0.0577888
43587	-0.00101207	0.0571128
43624	-0.000954849	0.0562476
43661	-0.000859479	0.055634
43698	-0.00103115	0.0552842
43735	-0.000954849	0.0553104
43772	-0.000840404	0.0545252
43809	-0.000954849	0.0532163
43846	-0.000764108	0.0520642
43883	-0.000992997	0.0515949
43920	-0.000973923	0.0513339
43957	-0.00105022	0.0510916
43994	-0.000840404	0.0506847
44031	-0.000973923	0.0502918
44068	-0.00105022	0.0497617
44105	-0.000878553	0.0494374
44142	-0.000897627	0.0495051
44179	-0.000935775	0.0494926
44216	-0.000840404	0.0486
44253	-0.00082133	0.0476062
44290	-0.000878553	0.0470188
44327	-0.000973923	0.046932
44364	-0.00105022	0.0466016
44401	-0.000745034	0.046409
44438	-0.000973923	0.0460774
44475	-0.00082133	0.0457767
44512	-0.000992997	0.0455121
44549	-0.000973923	0.0454528
44586	-0.000840404	0.0456522
44623	-0.000973923	0.0451308
44660	-0.000859479	0.0442112
44697	-0.000954849	0.0436593
44734	-0.000859479	0.0433178
44771	-0.000878553	0.0431946
44808	-0.00101207	0.0429868
44845	-0.00082133	0.0426337
44882	-0.000802256	0.0424768
44919	-0.000954849	0.0422203
44956	-0.000840404	0.0420547
44993	-0.000745034	0.0423408
45030	-0.000992997	0.0420012
45067	-0.000916701	0.0412234
45104	-0.000954849	0.0405976
45141	-0.000859479	0.0402446
45178	-0.000916701	0.0401939
45215	-0.00101207	0.0400381
45252	-0.00106929	0.0398737
45289	-0.000878553	0.0396889
45326	-0.000954849	0.0394724
45363	-0.000992997	0.0392947
45400	-0.000973923	0.0394144
45437	-0.000935775	0.0395785
45474	-0.00082133	0.0389276
45511	-0.00105022	0.0382926
45548	-0.000840404	0.0379395
45585	-0.000935775	0.0377346
45622	-0.00116466	0.0375784
45659	-0.00082133	0.0374432
45696	-0.000859479	0.0371906
45733	-0.000840404	0.0370579
45770	-0.00108837	0.0369179
45807	-0.000783182	0.0369247
45844	-0.000935775	0.0372872
45881	-0.000802256	0.0369311
45918	-0.000878553	0.0361477
45955	-0.000859479	0.0357624
45992	-0.00106929	0.0355182
46029	-0.000973923	0.0353435
46066	-0.000764108	0.035294
46103	-0.000973923	0.0351147
46140	-0.000764108	0.0349234
46177	-0.000840404	0.0347672
46214	-0.00108837	0.0347523
46251	-0.000973923	0.0350959
46288	-0.000954849	0.0351175
46325	-0.000973923	0.0344483
46362	-0.000840404	0.0338858
46399	-0.00101207	0.0335968
46436	-0.000897627	0.0334219
46473	-0.00101207	0.0332428
46510	-0.000802256	0.0330934
46547	-0.000916701	0.0329263
46584	-0.000802256	0.032733
46621	-0.000897627	0.0325687
46658	-0.00103115	0.0327828
46695	-0.000935775	0.0331184
46732	-0.000802256	0.0327066
46769	-0.00103115	0.0322021
46806	-0.000935775	0.031898
46843	-0.00082133	0.0317778
46880	-0.00082133	0.0317934
46917	-0.000745034	0.0317294
46954	-0.000897627	0.0315405
46991	-0.000935775	0.0313629
47028	-0.000916701	0.0313193
47065	-0.000916701	0.031395
47102	-0.000840404	0.0316522
47139	-0.000878553	0.0313845
47176	-0.00082133	0.0309153
47213	-0.00103115	0.0304653
47250	-0.000878553	0.0303939
47287	-0.000840404	0.0302609
47324	-0.000935775	0.0302774
47361	-0.000954849	0.0301732
47398	-0.000897627	0.0299165
47435	-0.000973923	0.0298815
47472	-0.00101207	0.0298551
47509	-0.00110744	0.0301571
47546	-0.000745034	0.0304154
47583	-0.000935775	0.0298502
47620	-0.000916701	0.0294293
47657	-0.000935775	0.0293029
47694	-0.000897627	0.0292411
47731	-0.000935775	0.0292333
47768	-0.000840404	0.0291676
47805	-0.000783182	0.0289806
47842	-0.000973923	0.0289006
47879	-0.00110744	0.028668
47916	-0.000916701	0.0289323
47953	-0.00108837	0.0291432
47990	-0.000916701	0.0288294
48027	-0.000935775	0.0283183
48064	-0.000973923	0.028069
48101	-0.000973923	0.0279245
48138	-0.000973923	0.027928
48175	-0.00101207	0.0277966
48212	-0.000840404	0.0276715
48249	-0.000954849	0.0276608
48286	-0.00105022	0.0274615
48323	-0.00105022	0.0275675
48360	-0.000973923	0.0279029
48397	-0.000783182	0.0278176
48434	-0.000973923	0.0272176
48471	-0.000973923	0.0268903
48508	-0.000897627	0.0267661
48545	-0.00106929	0.0267345
48582	-0.000783182	0.0267693
48619	-0.000973923	0.0265461
48656	-0.00106929	0.0264083
48693	-0.000897627	0.0263011
48730	-0.000878553	0.0262819
48767	-0.000973923	0.0265938
48804	-0.000878553	0.0266871
48841	-0.000897627	0.0261806
48878	-0.000916701	0.025803
48915	-0.000897627	0.0255264
48952	-0.000706886	0.0255465
48989	-0.00103115	0.0254761
49026	-0.000764108	0.0254198
49063	-0.000840404	0.0253605
49100	-0.000897627	0.0252069
49137	-0.000954849	0.025154
49174	-0.000916701	0.0254609
49211	-0.000878553	0.0257531
49248	-0.000878553	0.0254287
49285	-0.000783182	0.0249994
49322	-0.000897627	0.0246822
49359	-0.000954849	0.0246001
49396	-0.000878553	0.0245968
49433	-0.000954849	0.0244622
49470	-0.000954849	0.0244108
49507	-0.000954849	0.0242394
49544	-0.000859479	0.0241189
49581	-0.000954849	0.024386
49618	-0.000840404	0.0248498
49655	-0.000897627	0.0246446
49692	-0.00112652	0.0241739
49729	-0.000897627	0.0238837
49766	-0.000878553	0.0237913
49803	-0.000783182	0.0238751
49840	-0.000973923	0.023729
49877	-0.000802256	0.0236052
49914	-0.00101207	0.0234931
49951	-0.000840404	0.023403
49988	-0.000859479	0.0234683
50025	-0.000783182	0.0237573
50062	-0.000992997	0.023875
50099	-0.000878553	0.0235421
50136	-0.00101207	0.0231504
50173	-0.00105022	0.0229259
50210	-0.000802256	0.0229452
50247	-0.00082133	0.0229247
50284	-0.000954849	0.0228052
50321	-0.000916701	0.0227011
50358	-0.000878553	0.022537
50395	-0.000935775	0.0224463
50432	-0.00101207	0.0227112
50469	-0.000802256	0.0230739
50506	-0.000935775	0.0228758
50543	-0.00082133	0.0224579
50580	-0.000916701	0.022164
50617	-0.000878553	0.0220859
50654	-0.000706886	0.0221714
50691	-0.00101207	0.0221205
50728	-0.00082133	0.0220482
50765	-0.000878553	0.0219523
50802	-0.00105022	0.02184
50839	-0.00112652	0.0219822
50876	-0.000897627	0.0223602
50913	-0.000878553	0.0223021
50950	-0.000935775	0.0217758
50987	-0.000878553	0.0216292
51024	-0.000916701	0.0215223
51061	-0.000859479	0.0215047
51098	-0.000973923	0.0214475
51135	-0.00105022	0.021342
51172	-0.000745034	0.0212882
51209	-0.000954849	0.0211553
51246	-0.000840404	0.021267
51283	-0.00105022	0.0215116
51320	-0.00082133	0.0217223
51357	-0.000668738	0.0213802
51394	-0.000916701	0.0209789
51431	-0.00103115	0.0208933
51468	-0.00101207	0.0208745
51505	-0.000935775	0.0209513
51542	-0.000802256	0.0208318
51579	-0.000935775	0.0208426
51616	-2.00097	-50.8694
51653	-2.00086	-20.3754
51690	-2.00074	-12.9937
51727	-2.00097	-9.61509
51764	-2.00087	-7.64849
51801	-2.00078	-6.369
51838	-2.00084	-5.48929
51875	-2.00086	-4.84483
51912	-2.00099	-4.37051
51949	-2.00087	-3.98719
51986	-2.00095	-3.68592
52023	-2.00091	-3.43247
52060	-2.00086	-3.22658
52097	-2.00091	-3.05647
52134	-2.00089	-2.9113
52171	-2.00101	-2.77745
52208	-2.00093	-2.66477
52245	-2.00072	-2.57173
52282	-2.00093	-2.48687
52319	-2.00087	-2.41258
52356	-2.00097	-2.3504
52393	-2.00097	-2.29429
52430	-2.00095	-2.24036
52467	-2.00084	-2.19388
52504	-0.000954849	28.2915
52541	-0.000878553	2.66827
52578	-0.00110744	1.38049
52615	-0.00103115	0.977697
52652	-0.000840404	0.79377
52689	-0.000973923	0.687601
52726	-0.000764108	0.61673
52763	-0.00108837	0.564775
52800	-0.00103115	0.523662
52837	-0.000973923	0.490284
52874	-0.000916701	0.460696
52911	-0.000878553	0.438384
52948	-0.000802256	0.419594
52985	-0.00106929	0.400466
53022	-0.000992997	0.38083
53059	-0.000859479	0.364095
53096	-0.000954849	0.350339
53133	-0.000878553	0.338631
53170	-0.00082133	0.328046
53207	-0.000859479	0.318471
53244	-0.00082133	0.309629
53281	-0.00101207	0.301696
53318	-0.000992997	0.294753
53355	-0.000992997	0.289183
53392	-0.00106929	0.283598
53429	-0.00105022	0.275666
53466	-0.000878553	0.2681
53503	-0.00101207	0.262336
53540	-0.000878553	0.257686
53577	-0.00114559	0.25359
53614	-0.00101207	0.249825
53651	-0.000973923	0.245708
53688	-0.000897627	0.242358
53725	-0.000897627	0.239454
53762	-0.000973923	0.237286
53799	-0.00103115	0.235484
53836	-0.000916701	0.231662
53873	-0.000973923	0.227504
53910	-0.000897627	0.224103
53947	-0.00114559	0.221429
53984	-0.00108837	0.219586
54021	-0.00082133	0.217398
54058	-0.000992997	0.215141
54095	-0.000954849	0.213139
54132	-0.00106929	0.211283
54169	-0.00114559	0.209728
54206	-0.000897627	0.208695
54243	-0.000992997	0.206623
54280	-0.000859479	0.203308
54317	-0.000954849	0.199701
54354	-0.000992997	0.197497
54391	-0.000973923	0.1957
54428	-0.00112652	0.194318
54465	-0.000840404	0.1928
54502	-0.000859479	0.191305
54539	-0.000802256	0.189849
54576	-0.000954849	0.188794
54613	-0.000783182	0.188412
54650	-0.000783182	0.187647
54687	-0.00082133	0.1852
54724	-0.000973923	0.182909
54761	-0.000878553	0.18136
54798	-0.000916701	0.180198
54835	-0.000935775	0.17934
54872	-0.000973923	0.178219
54909	-0.000916701	0.177089
54946	-0.00108837	0.175909
54983	-0.00105022	0.174912
55020	-0.000954849	0.174568
55057	-0.000935775	0.174414
55094	-0.000840404	0.172932
55131	-0.000859479	0.170785
55168	-0.000897627	0.168951
55200	-0.000973923	0.169017