File: Data_30_Experiment/CA_267_015_minutes_C01.txt
time/s	Ewe/V	<I>/mA
1	1.49949	181.829
10	1.49949	32.6202
19	1.49945	25.4895
28	1.49949	22.477
37	1.49955	20.785
46	1.49953	19.7529
55	1.49941	18.9401
64	1.49953	18.3824
73	1.49947	17.7002
82	1.49951	17.1153
91	1.49959	16.4222
100	1.49949	15.767
109	1.49959	15.2182
118	1.49957	14.5525
127	1.49945	13.9644
136	1.49955	13.3459
145	1.49949	12.8133
154	1.49959	12.2631
163	1.49951	11.7088
172	1.49964	11.3051
181	1.49951	10.8142
190	1.49957	10.562
199	1.49955	10.1983
208	1.49947	10.0522
217	1.49955	9.87406
226	1.49966	9.72623
235	1.49959	9.66134
244	1.4997	9.47902
253	1.49955	9.48384
262	1.49966	9.30762
271	1.49959	9.32554
280	1.49959	9.21599
289	1.49962	9.22445
298	1.49968	9.22277
307	1.49962	9.14847
316	1.49947	9.19769
325	1.49957	9.08428
334	1.4997	9.14271
343	1.49961	9.04154
352	1.49959	9.10067
361	1.49945	9.07724
370	1.49953	9.07231
379	1.49943	9.12423
388	1.49951	9.04871
397	1.49949	9.12143
406	1.49955	9.01234
415	1.49959	9.09658
424	1.49964	9.03306
433	1.49945	9.08457
442	1.49962	9.10592
451	1.49966	9.07268
460	1.49955	9.13809
469	1.49962	9.05081
478	1.49961	9.12152
487	1.49959	9.02914
496	1.49955	9.09688
505	1.49961	9.07376
514	1.49959	9.09776
523	1.49951	9.14659
532	1.49945	9.08518
541	1.49949	9.15353
550	1.49955	9.06808
559	1.49964	9.13389
568	1.49947	9.06254
577	1.49962	9.11302
586	1.49959	9.12373
595	1.49962	9.09223
604	1.49953	9.14957
613	1.49951	9.06707
622	1.49959	9.12868
631	1.49955	9.03629
640	1.49957	9.11455
649	1.4997	9.07728
658	1.49959	9.08884
667	1.49957	9.12448
676	1.49945	9.06071
685	1.49972	9.11518
694	1.49966	9.01749
703	1.49959	9.07741
712	1.49959	8.992
721	1.49962	9.03326
730	1.49938	9.02738
739	1.49955	8.9994
748	1.49962	9.0388
757	1.49959	8.95283
766	1.49966	9.00108
775	1.49951	8.89994
784	1.49947	8.95184
793	1.49957	8.89898
802	1.49943	8.90741
811	1.49949	8.92482
820	1.49951	8.86407
829	1.49953	8.9063
838	1.49964	8.80314
847	1.49961	8.85129
856	1.4994	8.76275
865	1.49941	8.80509
874	1.49951	8.81735
883	1.49964	8.79554
892	1.49953	8.821
900.952	-0.000934964	-29.5129
909.952	-0.000896816	-4.30827
918.952	-0.000877742	-2.4333
927.952	-0.00091589	-1.47273
936.952	-0.000992187	-0.945672
945.952	-0.00091589	-0.63163
954.952	-0.000973113	-0.450974
963.952	-0.000763297	-0.332762
972.952	-0.00082052	-0.250676
981.952	-0.000992187	-0.195856
990.952	-0.000858668	-0.153175
999.952	-0.000954038	-0.123165
1008.95	-0.000763297	-0.0984077
1017.95	-0.000801446	-0.0792971
1026.95	-0.000839594	-0.0644192
1035.95	-0.000744223	-0.0512947
1044.95	-0.000877742	-0.042241
1053.95	-0.000934964	-0.0334216
1062.95	-0.000992187	-0.0271684
1071.95	-0.000801446	-0.0209876
1080.95	-0.000782372	-0.0156845
1089.95	-0.000858668	-0.0120402
1098.95	-0.00101126	-0.00742383
1107.95	-0.00091589	-0.00471918
1116.95	-0.000858668	-0.00119135
1125.95	-0.000839594	0.00142678
1134.95	-0.000801446	0.00424625
1143.95	-0.000934964	0.00660641
1152.95	-0.000934964	0.00851752
1161.95	-0.00091589	0.0110277
1170.95	-0.00110663	0.0117642
1179.95	-0.000992187	0.0133867
1188.95	-0.000973113	0.0137785
1197.95	-0.000973113	0.0145243
1206.95	-0.000839594	0.0148986
1215.95	-0.000858668	0.0151797
1224.95	-0.00101126	0.0160112
1233.95	-0.000973113	0.0155001
1242.95	-0.00082052	0.016152
1251.95	-0.000744223	0.0155804
1260.95	-0.000992187	0.0157511
1269.95	-0.00082052	0.0157149
1278.95	-0.00091589	0.0157869
1287.95	-0.00091589	0.0163299
1296.95	-0.000858668	0.015968
1305.95	-0.00091589	0.0170911
1314.95	-0.000934964	0.0161338
1323.95	-0.00091589	0.0163927
1332.95	-0.000896816	0.015955
1341.95	-0.00108756	0.0157458
1350.95	-0.00091589	0.01571
1359.95	-0.000839594	0.0153274
1368.95	-0.00091589	0.0156914
1377.95	-0.00101126	0.0146844
1386.95	-0.000973113	0.015017
1395.95	-0.000782372	0.0138777
1404.95	-0.000992187	0.0134547
1413.95	-0.000839594	0.0130121
1422.95	-0.000934964	0.0123434
1431.95	-0.00091589	0.012459
1440.95	-0.000954038	0.0115675
1449.95	-0.000858668	0.0119967
1458.95	-0.000896816	0.0109216
1467.95	-0.00082052	0.0106255
1476.95	-0.000858668	0.00997213
1485.95	-0.00091589	0.00915392
1494.95	-0.000725149	0.00911206
1503.95	-0.000896816	0.00840142
1512.95	-0.000896816	0.00895286
1521.95	-0.000858668	0.0078397
1530.95	-0.000801446	0.00801517
1539.95	-0.000839594	0.00707033
1548.95	-0.00106848	0.00675443
1557.95	-0.000877742	0.00640761
1566.95	-0.000782372	0.00597833
1575.95	-0.000877742	0.00622933
1584.95	-0.000801446	0.00574002
1593.95	-0.000839594	0.0062495
1602.95	-0.000801446	0.00516709
1611.95	-0.00101126	0.00521497
1620.95	-0.00106848	0.00475008
1629.95	-0.000877742	0.00425749
1638.95	-0.000877742	0.0043933
1647.95	-0.000801446	0.00391837
1656.95	-0.000801446	0.00458577
1665.95	-0.000934964	0.00382697
1674.95	-0.000858668	0.0043507
1683.95	-0.000973113	0.00359213
1692.95	-0.00091589	0.00351161
1701.95	-0.000858668	0.00337962
1710.95	-0.000877742	0.00317871
1719.95	-0.000744223	0.00345316
1728.95	-0.000992187	0.00317135
1737.95	-0.000992187	0.00371266
1746.95	-0.000782372	0.00301261
1755.95	-0.000744223	0.00307749
1764.95	-0.000858668	0.00279346
1773.95	-0.000954038	0.00241623
1782.95	-0.000839594	0.00269198
1791.95	-0.000934964	0.00235264
1800.95	-0.000992187	0.00292379
1809.95	-0.000954038	0.00226489
1818.95	-0.00106848	0.0026552
1827.95	-0.000782372	0.00196873
1836.95	-0.000934964	0.00174659
1845.95	-0.000763297	0.00172295
1854.95	-0.00106848	0.00153705
1863.95	-0.000858668	0.00186657
1872.95	-0.000954038	0.00156603
1881.95	-0.00091589	0.00238321
1890.95	-0.000877742	0.00149668
1899.95	-0.000992187	0.00163362
1908.95	-0.000877742	0.00137513
1917.95	-0.000896816	0.00114571
1926.95	-0.00103033	0.00134869
1935.95	-0.000896816	0.00104628
1944.95	-0.000877742	0.00157186
1953.95	-0.00082052	0.00088119
1962.95	-0.000954038	0.00156964
1971.95	-0.00101126	0.00104257
1980.95	-0.000744223	0.000891802
1989.95	-0.000992187	0.000863995
1998.95	-0.00091589	0.000637107
2007.95	-0.000801446	0.000941048
2016.95	-0.000858668	0.000400781
2025.95	-0.000934964	0.00136099
2034.95	-0.000858668	0.000688959
2043.95	-0.000896816	0.000758086
2052.95	-0.00091589	0.00047457
2061.95	-0.000934964	0.000228661
2070.95	-0.00103033	0.000330901
2079.95	-0.000934964	2.13829e-05
2088.95	-0.000954038	0.000561637
2097.95	-0.000858668	3.3657e-05
2106.95	-0.000858668	0.000393958
2115.95	-0.000934964	-3.05073e-06
2124.95	-0.00101126	-0.000174737
2133.95	-0.000954038	-8.50956e-05
2142.95	-0.000934964	-0.000543552
2151.95	-0.000801446	-0.000113682
2160.95	-0.000877742	-0.000544725
2169.95	-0.000839594	2.60076e-06
2178.95	-0.000934964	-0.000420193
2187.95	-0.000801446	-0.000337052
2196.95	-0.000992187	-0.000519445
2205.95	-0.000839594	-0.000891736
2214.95	-0.000877742	-0.000621002
2223.95	-0.000954038	-0.000776161
2232.95	-0.000992187	-0.000429692
2241.95	-0.000934964	-0.000745466
2250.95	-0.000896816	-0.000124489
2259.95	-0.000954038	-0.000765241
2268.95	-0.00101126	-0.000804475
2277.95	-0.000992187	-0.000828874
2286.95	-0.00101126	-0.00101329
2295.95	-0.000801446	-0.00065483
2304.95	-0.000782372	-0.000913067
2313.95	-0.00103033	-0.00035693
2322.95	-0.000725149	-0.00108141
2331.95	-0.00091589	-0.000687098
2340.95	-0.000763297	-0.000871809
2349.95	-0.000877742	-0.00111989
2358.95	-0.00091589	-0.00105569
2367.95	-0.00091589	-0.0012894
2376.95	-0.00091589	-0.000830866
2385.95	-0.00082052	-0.00116275
2394.95	-0.000744223	-0.000629103
2403.95	-0.00082052	-0.00108335
2412.95	-0.000954038	-0.00124146
2421.95	-0.000782372	-0.00112496
2430.95	-0.000934964	-0.00147787
2439.95	-0.000782372	-0.00114112
2448.95	-0.000896816	-0.00141242
2457.95	-0.000801446	-0.000821361
2466.95	-0.00108756	-0.00122973
2475.95	-0.000744223	-0.00109994
2484.95	-0.000858668	-0.00137312
2493.95	-0.000858668	-0.00154512
2502.95	-0.000839594	-0.00138276
2511.95	-0.00101126	-0.00161453
2520.95	-0.00103033	-0.00124473
2529.95	-0.000667927	-0.001387
2538.95	-0.000801446	-0.000852063
2547.95	-0.00082052	-0.00145872
2556.95	-0.00082052	-0.00132919
2565.95	-0.000839594	-0.00147224
2574.95	-0.00091589	-0.00164886
2583.95	-0.000839594	-0.00141632
2592.95	-0.00082052	-0.00152896
2601.95	-0.00082052	-0.00097745
2610.95	-0.000973113	-0.00150071
2619.95	-0.000839594	-0.0011868
2628.95	-0.000954038	-0.00159486
2637.95	-0.00091589	-0.00168571
2646.95	-0.000839594	-0.00158384
2655.95	-0.000763297	-0.00170278
2664.95	-0.000896816	-0.00134887
2673.95	-0.000896816	-0.00159212
2682.95	-0.00082052	-0.000993453
2691.95	-0.000954038	-0.00156056
2700.95	-0.00101126	-0.00146853
2709.95	-0.00091589	-0.00156884
2718.95	-0.000934964	-0.00180445
2727.95	-0.000839594	-0.00155327
2736.95	-0.000954038	-0.00170887
2745.95	-0.000877742	-0.00124387
2754.95	-0.000877742	-0.00166314
2763.95	-0.000858668	-0.00124232
2772.95	-0.000934964	-0.00148281
2781.95	-0.000992187	-0.00174553
2790.95	-0.00106848	-0.00155719
2799.95	-0.000954038	-0.00176483
2808.95	-0.000877742	-0.00146331
2817.95	-0.000801446	-0.00162642
2826.95	-0.000858668	-0.00111256
2835.95	-0.000763297	-0.00153547
2844.95	-0.000896816	-0.0013635
2853.95	-0.000858668	-0.00153865
2862.95	-0.00103033	-0.001794
2871.95	-0.00082052	-0.00155535
2880.95	-0.000877742	-0.00164076
2889.95	-0.00091589	-0.00126231
2898.95	-0.000858668	-0.00149519
2907.95	-0.000744223	-0.00117517
2916.95	-0.000782372	-0.00154213
2925.95	-0.000782372	-0.00182606
2934.95	-0.00082052	-0.00147946
2943.95	-0.000782372	-0.00169521
2952.95	-0.00091589	-0.0014457
2961.95	-0.000877742	-0.00157608
2970.95	-0.000763297	-0.00108786
2979.95	-0.000763297	-0.00137271
2988.95	-0.000877742	-0.00135409
2997.95	-0.000954038	-0.00161878
3006.95	-0.000896816	-0.00157668
3015.95	-0.000839594	-0.00116416
3024.95	-0.000877742	-0.00151579
3033.95	-0.000858668	-0.000964941
3042.95	-0.000858668	-0.00146791
3051.95	-0.000934964	-0.000992362
3060.95	-0.000954038	-0.00126233
3069.95	-0.00082052	-0.00136815
3078.95	-0.000763297	-0.0012333
3087.95	-0.00103033	-0.00152885
3096.95	-0.000934964	-0.00123061
3105.95	-0.000973113	-0.00138266
3114.95	-0.000896816	-0.000769786
3123.95	-0.000954038	-0.0012371
3132.95	-0.000801446	-0.00112761
3141.95	-0.000934964	-0.00126246
3150.95	-0.00091589	-0.00128971
3159.95	-0.000744223	-0.00108794
3168.95	-0.000839594	-0.00135558
3177.95	-0.000934964	-0.000864999
3186.95	-0.000744223	-0.00118366
3195.95	-0.000934964	-0.000700536
3204.95	-0.000934964	-0.0011161
3213.95	-0.000896816	-0.0011777
3222.95	-0.000877742	-0.00110568
3231.95	-0.00091589	-0.00156681
3240.95	-0.000801446	-0.00108191
3249.95	-0.000801446	-0.0011648
3258.95	-0.000763297	-0.000995134
3267.95	-0.00101126	-0.00119711
3276.95	-0.00091589	-0.00100704
3285.95	-0.000877742	-0.00107075
3294.95	-0.000877742	-0.00119678
3303.95	-0.000801446	-0.000749456
3312.95	-0.000858668	-0.00104383
3321.95	-0.000572556	-0.000706737
3330.95	-0.00082052	-0.000897656
3339.95	-0.000782372	-0.000380833
3348.95	-0.00082052	-0.00090792
3357.95	-0.000858668	-0.000890116
3366.95	-0.000877742	-0.0006741
3375.95	-0.000801446	-0.00094371
3384.95	-0.00091589	-0.000635922
3393.95	-0.000934964	-0.000782994
3402.95	-0.000896816	-0.000275582
3411.95	-0.000667927	-0.000698894
3420.95	-0.000992187	-0.000424046
3429.95	-0.000801446	-0.00071098
3438.95	-0.000896816	-0.000650115
3447.95	-0.00091589	-0.000533933
3456.95	-0.000801446	-0.000636571
3465.95	-0.000839594	-0.000192612
3474.95	-0.000992187	-0.000536997
3483.95	-0.00104941	-7.18432e-05
3492.95	-0.000934964	-0.000349506
3501.95	-0.000896816	-0.000438026
3510.95	-0.000801446	-0.000314802
3519.95	-0.00091589	-0.000391833
3528.95	-0.000934964	-0.000119099
3537.95	-0.000934964	-0.000324081
3546.95	-0.000877742	-5.51758e-06
3555.95	-0.000877742	-0.000232509
3564.95	-0.00101126	-6.27293e-05
3573.95	-0.000858668	-0.000283157
3582.95	-0.000934964	-0.000154902
3591.95	-0.000782372	-4.34556e-05
3600.95	-0.000801446	-0.000293406
3609.95	-0.000858668	4.27432e-05
3618.95	-0.000973113	-0.000136245
3627.95	-0.00091589	-6.32783e-06
3636.95	-0.000839594	3.58977e-06
3645.95	-0.000839594	-1.43314e-05
3654.95	-0.000858668	7.51976e-06
3663.95	-0.000839594	-2.04722e-05
3672.95	-0.000858668	5.13274e-05
3681.95	-0.000877742	8.61855e-06
3690.95	-0.000725149	0.000445816
3699.95	-0.000858668	8.75635e-05
3708.95	-0.000954038	0.000471333
3717.95	-0.000782372	0.000202859
3726.95	-0.00082052	8.13409e-05
3735.95	-0.000934964	0.00033641
3744.95	-0.000934964	0.0001927
3753.95	-0.00091589	0.000317481
3762.95	-0.000839594	0.000346858
3771.95	-0.00082052	0.000858722
3780.95	-0.000934964	0.000435543
3789.95	-0.000973113	0.000528282
3798.95	-0.000992187	0.00030502
3807.95	-0.000992187	0.000280017
3816.95	-0.000839594	0.000196955
3825.95	-0.00082052	0.000208605
3834.95	-0.000877742	0.000663748
3843.95	-0.000763297	0.000489552
3852.95	-0.000839594	0.00085231
3861.95	-0.000877742	0.000506766
3870.95	-0.000954038	0.00052518
3879.95	-0.000858668	0.00055538
3888.95	-0.000763297	0.000511829
3897.95	-0.000839594	0.000753014
3906.95	-0.000839594	0.000528731
3915.95	-0.000896816	0.00106684
3924.95	-0.000934964	0.000694688
3933.95	-0.00091589	0.000679789
3942.95	-0.000782372	0.000744222
3951.95	-0.000839594	0.000496791
3960.95	-0.000896816	0.000781246
3969.95	-0.000801446	0.000705294
3978.95	-0.000801446	0.00114376
3987.95	-0.000858668	0.000895087
3996.95	-0.00082052	0.00125657
4005.95	-0.000839594	0.00093109
4014.95	-0.000973113	0.000862446
4023.95	-0.000954038	0.000967326
4032.95	-0.000687001	0.000893176
4041.95	-0.000954038	0.00117029
4050.95	-0.000877742	0.000963418
4059.95	-0.000896816	0.00159718
4068.95	-0.000973113	0.00107267
4077.95	-0.000973113	0.00135603
4086.95	-0.000992187	0.00108895
4095.95	-0.000896816	0.00101055
4104.95	-0.000954038	0.00119034
4113.95	-0.000858668	0.00110256
4122.95	-0.00082052	0.00150358
4131.95	-0.000839594	0.00114478
4140.95	-0.00104941	0.00157716
4149.95	-0.000839594	0.00135354
4158.95	-0.000973113	0.00131738
4167.95	-0.000877742	0.00133012
4176.95	-0.000858668	0.00118653
4185.95	-0.000839594	0.00155328
4194.95	-0.000934964	0.00145013
4203.95	-0.000763297	0.0017362
4212.95	-0.000801446	0.00145902
4221.95	-0.000934964	0.00154738
4230.95	-0.000992187	0.00147933
4239.95	-0.00082052	0.00142576
4248.95	-0.000839594	0.0016073
4257.95	-0.00091589	0.001479
4266.95	-0.000839594	0.00181952
4275.95	-0.000839594	0.00164378
4284.95	-0.00101126	0.00210754
4293.95	-0.00082052	0.00175901
4302.95	-0.00091589	0.00180401
4311.95	-0.00091589	0.00160524
4320.95	-0.000858668	0.00165862
4329.95	-0.000934964	0.00191472
4338.95	-0.000954038	0.00175807
4347.95	-0.000839594	0.00230735
4356.95	-0.000725149	0.00192581
4365.95	-0.000839594	0.00207408
4374.95	-0.00101126	0.00193602
4383.95	-0.000934964	0.00170239
4392.95	-0.000896816	0.00180439
4401.95	-0.000934964	0.00174136
4410.95	-0.000934964	0.00225372
4419.95	-0.000839594	0.00202769
4428.95	-0.000954038	0.00249049
4437.95	-0.000992187	0.00202439
4446.95	-0.000896816	0.00198972
4455.95	-0.000877742	0.00187613
4464.95	-0.000858668	0.00196102
4473.95	-0.000858668	0.00218981
4482.95	-0.000782372	0.00202704
4491.95	-0.00082052	0.00248678
4500.95	-0.00104941	0.00211584
4509.95	-0.00101126	0.0023177
4518.95	-0.00091589	0.00209386
4527.95	-0.000877742	0.00207296
4536.95	-0.000839594	0.00226933
4545.95	-0.000858668	0.00224944
4554.95	-0.000992187	0.00250209
4563.95	-0.000992187	0.00218558
4572.95	-0.000934964	0.00268744
4581.95	-0.000877742	0.00232839
4590.95	-0.00091589	0.00243866
4599.95	-0.00082052	0.00226799
4608.95	-0.00082052	0.00234775
4617.95	-0.00091589	0.0025374
4626.95	-0.00091589	0.0023266
4635.95	-0.000801446	0.00288962
4644.95	-0.000877742	0.0026845
4653.95	-0.00091589	0.00286839
4662.95	-0.00091589	0.00258916
4671.95	-0.000877742	0.00260213
4680.95	-0.000858668	0.00272117
4689.95	-0.000954038	0.00264728
4698.95	-0.000858668	0.00300197
4707.95	-0.000801446	0.00280816
4716.95	-0.000877742	0.0031167
4725.95	-0.000877742	0.00278424
4734.95	-0.00082052	0.00293175
4743.95	-0.000896816	0.00301594
4752.95	-0.00101126	0.00261435
4761.95	-0.000782372	0.00303946
4770.95	-0.000858668	0.00285403
4779.95	-0.000858668	0.00314982
4788.95	-0.000782372	0.00295274
4797.95	-0.00091589	0.00310571
4806.95	-0.00082052	0.00306229
4815.95	-0.000763297	0.00286027
4824.95	-0.00091589	0.0031235
4833.95	-0.000973113	0.00302804
4842.95	-0.000973113	0.00315816
4851.95	-0.000992187	0.0030908
4860.95	-0.000801446	0.00351846
4869.95	-0.00082052	0.00315887
4878.95	-0.000877742	0.00341158
4887.95	-0.000934964	0.00314697
4896.95	-0.000858668	0.00307714
4905.95	-0.00101126	0.00329661
4914.95	-0.000934964	0.00332148
4923.95	-0.000954038	0.00360298
4932.95	-0.000782372	0.00332183
4941.95	-0.000839594	0.00381759
4950.95	-0.00103033	0.0035383
4959.95	-0.000782372	0.00337192
4968.95	-0.000877742	0.00335962
4977.95	-0.000877742	0.00336263
4986.95	-0.000858668	0.00370818
4995.95	-0.000877742	0.00344123
5004.95	-0.000858668	0.00396934
5013.95	-0.000992187	0.00346631
5022.95	-0.000744223	0.00376027
5031.95	-0.000801446	0.00374987
5040.95	-0.000954038	0.00360187
5049.95	-0.00082052	0.00376365
5058.95	-0.000858668	0.00357194
5067.95	-0.000858668	0.00396203
5076.95	-0.000706075	0.00380555
5085.95	-0.000782372	0.0041473
5094.95	-0.000934964	0.00387161
5103.95	-0.000858668	0.0038218
5112.95	-0.00106848	0.00408423
5121.95	-0.000801446	0.00371678
5130.95	-0.000858668	0.00407889
5139.95	-0.000706075	0.00385824
5148.95	-0.000896816	0.00437294
5157.95	-0.00082052	0.00416788
5166.95	-0.000839594	0.00418163
5175.95	-0.00082052	0.00403918
5184.95	-0.000954038	0.00393619
5193.95	-0.00082052	0.00406944
5202.95	-0.000839594	0.0039502
5211.95	-0.000839594	0.00443483
5220.95	-0.000934964	0.00414088
5229.95	-0.00091589	0.00452189
5238.95	-0.000934964	0.00427503
5247.95	-0.000877742	0.00421463
5256.95	-0.000934964	0.00420456
5265.95	-0.000877742	0.00404087
5274.95	-0.000839594	0.00440804
5283.95	-0.000858668	0.00417199
5292.95	-0.000877742	0.00464085
5301.95	-0.000992187	0.00445076
5310.95	-0.00091589	0.00449299
5319.95	-0.000839594	0.00442471
5328.95	-0.000896816	0.00443704
5337.95	-0.000877742	0.00457399
5346.95	-0.000801446	0.00424616
5355.95	-0.000896816	0.00472021
5364.95	-0.00091589	0.00456013
5373.95	-0.00091589	0.00475096
5382.95	-0.000954038	0.00459661
5391.95	-0.000782372	0.00458954
5400.95	-0.000954038	0.00467239
5409.95	-0.00091589	0.00452437
5418.95	-0.000896816	0.00467174
5427.95	-0.000896816	0.00467099
5436.95	-0.000896816	0.00515568
5445.95	-0.000858668	0.00472931
5454.95	-0.000954038	0.00489152
5463.95	-0.00091589	0.00480391
5472.95	-0.000877742	0.00478794
5481.95	-0.000954038	0.00476815
5490.95	-0.00101126	0.00469438
5499.95	-0.000744223	0.00508974
5508.95	-0.000782372	0.00487047
5517.95	-0.000896816	0.00518315
5526.95	-0.000934964	0.00495306
5535.95	-0.000934964	0.0048617
5544.95	-0.00082052	0.00477926
5553.95	-0.000839594	0.00479327
5562.95	-0.00091589	0.00481481
5571.95	-0.000934964	0.00487992
5580.95	-0.000896816	0.00527527
5589.95	-0.000934964	0.00489096
5598.95	-0.000954038	0.00531528
5607.95	-0.000934964	0.00499267
5616.95	-0.000954038	0.00491338
5625.95	-0.000877742	0.00511368
5634.95	-0.00101126	0.00510495
5643.95	-0.000992187	0.00496216
5652.95	-0.000839594	0.00509857
5661.95	-0.00082052	0.00566719
5670.95	-0.000934964	0.00516439
5679.95	-0.000896816	0.00528933
5688.95	-0.00091589	0.00515718
5697.95	-0.000877742	0.00513455
5706.95	-0.000934964	0.00524989
5715.95	-0.00091589	0.00502228
5724.95	-0.000934964	0.00560548
5733.95	-0.000801446	0.00528928
5742.95	-0.000896816	0.00551359
5751.95	-0.000992187	0.0052286
5760.95	-0.000877742	0.00538242
5769.95	-0.00091589	0.00520592
5778.95	-0.000877742	0.00516503
5787.95	-0.000858668	0.00547692
5796.95	-0.00103033	0.00555003
5805.95	-0.000744223	0.00566973
5814.95	-0.00106848	0.00540158
5823.95	-0.000839594	0.00546669
5832.95	-0.000801446	0.00546595
5841.95	-0.000877742	0.00533044
5850.95	-0.00082052	0.00552952
5859.95	-0.000877742	0.00537112
5868.95	-0.000896816	0.00577099
5877.95	-0.000954038	0.00561074
5886.95	-0.000801446	0.00580104
5895.95	-0.000782372	0.00564661
5904.95	-0.000877742	0.00557358
5913.95	-0.000782372	0.00566729
5922.95	-0.000934964	0.00547455
5931.95	-0.000934964	0.00578405
5940.95	-0.00091589	0.00562827
5949.95	-0.000839594	0.00606416
5958.95	-0.000782372	0.00564074
5967.95	-0.000763297	0.00542439
5976.95	-0.00091589	0.00603624
5985.95	-0.000934964	0.00566673
5994.95	-0.000858668	0.00591046
6003.95	-0.000858668	0.00591551
6012.95	-0.000896816	0.00601219
6021.95	-0.00091589	0.00597407
6030.95	-0.000934964	0.00610859
6039.95	-0.00082052	0.00592409
6048.95	-0.000839594	0.00578417
6057.95	-0.000858668	0.00593801
6066.95	-0.00101126	0.00576911
6075.95	-0.000858668	0.00606927
6084.95	-0.000954038	0.00589819
6093.95	-0.000782372	0.0062394
6102.95	-0.000839594	0.00599406
6111.95	-0.000934964	0.00615202
6120.95	-0.000973113	0.00607674
6129.95	-0.000858668	0.00609411
6138.95	-0.00091589	0.00615929
6147.95	-0.000858668	0.00606668
6156.95	-0.00091589	0.00644639
6165.95	-0.000801446	0.00623269
6174.95	-0.000954038	0.00640234
6183.95	-0.00101126	0.00626113
6192.95	-0.000896816	0.00623345
6201.95	-0.000782372	0.00628908
6210.95	-0.000839594	0.00621665
6219.95	-0.00082052	0.00631383
6228.95	-0.000858668	0.00627083
6237.95	-0.000934964	0.00661727
6246.95	-0.000877742	0.00640992
6255.95	-0.000992187	0.0064721
6264.95	-0.000858668	0.00649725
6273.95	-0.000763297	0.0063356
6282.95	-0.000763297	0.00631994
6291.95	-0.000954038	0.00658122
6300.95	-0.000763297	0.00685051
6309.95	-0.00091589	0.00643483
6318.95	-0.000973113	0.00687856
6327.95	-0.000744223	0.0064706
6336.95	-0.000896816	0.00659755
6345.95	-0.000934964	0.0066219
6354.95	-0.000896816	0.0065344
6363.95	-0.000896816	0.00675785
6372.95	-0.000801446	0.00669169
6381.95	-0.000858668	0.00708055
6390.95	-0.000973113	0.00667068
6399.95	-0.000992187	0.00690537
6408.95	-0.000782372	0.00680005
6417.95	-0.00091589	0.00663833
6426.95	-0.000858668	0.00685578
6435.95	-0.00082052	0.00659654
6444.95	-0.000896816	0.00709294
6453.95	-0.000934964	0.00685262
6462.95	-0.00091589	0.00719355
6471.95	-0.00091589	0.00696534
6480.95	-0.00101126	0.00676614
6489.95	-0.000934964	0.006864
6498.95	-0.000877742	0.00675069
6507.95	-0.000877742	0.00687395
6516.95	-0.00103033	0.00696741
6525.95	-0.00091589	0.0073741
6534.95	-0.00091589	0.00682313
6543.95	-0.000801446	0.0071243
6552.95	-0.000839594	0.00704741
6561.95	-0.00103033	0.0067529
6570.95	-0.000896816	0.00708676
6579.95	-0.000992187	0.00697867
6588.95	-0.000877742	0.00725396
6597.95	-0.000858668	0.00698499
6606.95	-0.000954038	0.00753822
6615.95	-0.00103033	0.00714064
6624.95	-0.00091589	0.00723933
6633.95	-0.000896816	0.00720406
6642.95	-0.000725149	0.00694009
6651.95	-0.000877742	0.00716269
6660.95	-0.000896816	0.00705915
6669.95	-0.000877742	0.00751207
6678.95	-0.000973113	0.00721884
6687.95	-0.000877742	0.00754903
6696.95	-0.000896816	0.00714405
6705.95	-0.000973113	0.00715889
6714.95	-0.000877742	0.00720365
6723.95	-0.000858668	0.00725626
6732.95	-0.000954038	0.00737627
6741.95	-0.000801446	0.00727198
6750.95	-0.000973113	0.00769751
6759.95	-0.000954038	0.00731253
6768.95	-0.000801446	0.00747565
6777.95	-0.00082052	0.00725515
6786.95	-0.000973113	0.00719676
6795.95	-0.000858668	0.0073612
6804.95	-0.000877742	0.00737009
6813.95	-0.000954038	0.00761675
6822.95	-0.000954038	0.00742487
6831.95	-0.000992187	0.00761356
6840.95	-0.000782372	0.00745461
6849.95	-0.000896816	0.00727047
6858.95	-0.000839594	0.00730001
6867.95	-0.000801446	0.00721143
6876.95	-0.00082052	0.00749329
6885.95	-0.00103033	0.0074165
6894.95	-0.00103033	0.00771403
6903.95	-0.000954038	0.00739113
6912.95	-0.000934964	0.00757199
6921.95	-0.00082052	0.00742576
6930.95	-0.000839594	0.00730836
6939.95	-0.00082052	0.00738474
6948.95	-0.000877742	0.00739484
6957.95	-0.000687001	0.00782172
6966.95	-0.00091589	0.00752737
6975.95	-0.000801446	0.00773095
6984.95	-0.000763297	0.00756846
6993.95	-0.000858668	0.00764445
7002.95	-0.000782372	0.00752452
7011.95	-0.000801446	0.00754708
7020.95	-0.000877742	0.00779036
7029.95	-0.00101126	0.00769222
7038.95	-0.000954038	0.00803501
7047.95	-0.000839594	0.00769482
7056.95	-0.000973113	0.00777104
7065.95	-0.000858668	0.00776486
7074.95	-0.000839594	0.00756782
7083.95	-0.000896816	0.0077502
7092.95	-0.000858668	0.00762902
7101.95	-0.000839594	0.00796808
7110.95	-0.000629779	0.00784461
7119.95	-0.00104941	0.00794861
7128.95	-0.000973113	0.00784351
7137.95	-0.000954038	0.00776174
7146.95	-0.000858668	0.00783464
7155.95	-0.000858668	0.00777616
7164.95	-0.000801446	0.00798185
7173.95	-0.000801446	0.00785703
7182.95	-0.00082052	0.00825755
7191.95	-0.00091589	0.00794889
7200.95	-0.000973113	0.0079921
7209.95	-0.000858668	0.00799768
7218.95	-0.00091589	0.00786397
7227.95	-0.000858668	0.00801178
7236.95	-0.000896816	0.00794124
7245.95	-0.00091589	0.00811742
7254.95	-0.00112571	0.00790212
7263.95	-0.000896816	0.00840361
7272.95	-0.00082052	0.00793031
7281.95	-0.00082052	0.0079649
7290.95	-0.000896816	0.0079635
7299.95	-0.000858668	0.00789489
7308.95	-0.000801446	0.00803297
7317.95	-0.000858668	0.00804283
7326.95	-0.000839594	0.00855813
7335.95	-0.000992187	0.00809235
7344.95	-0.000877742	0.00820206
7353.95	-0.000839594	0.00805341
7362.95	-0.000877742	0.00797695
7371.95	-0.000782372	0.00797034
7380.95	-0.000896816	0.00804912
7389.95	-0.000782372	0.00836268
7398.95	-0.000858668	0.008246
7407.95	-0.00103033	0.00840128
7416.95	-0.000839594	0.00816623
7425.95	-0.000839594	0.00813467
7434.95	-0.000858668	0.00814412
7443.95	-0.000839594	0.00812757
7452.95	-0.000839594	0.00832002
7461.95	-0.000801446	0.00821756
7470.95	-0.000896816	0.00860706
7479.95	-0.000858668	0.00836187
7488.95	-0.00082052	0.00845363
7497.95	-0.00091589	0.00842126
7506.95	-0.000992187	0.0082878
7515.95	-0.00082052	0.00832335
7524.95	-0.000839594	0.00817876
7533.95	-0.000744223	0.00862194
7542.95	-0.000877742	0.00838722
7551.95	-0.000782372	0.00869446
7560.95	-0.000782372	0.00838313
7569.95	-0.000877742	0.00843415
7578.95	-0.00091589	0.00850431
7587.95	-0.000839594	0.00846406
7596.95	-0.000973113	0.00863495
7605.95	-0.000896816	0.00852302
7614.95	-0.00082052	0.00891391
7623.95	-0.000934964	0.00855971
7632.95	-0.000992187	0.00875656
7641.95	-0.000934964	0.00840713
7650.95	-0.000839594	0.00856193
7659.95	-0.000877742	0.00851819
7668.95	-0.000992187	0.00850146
7677.95	-0.000973113	0.00885996
7686.95	-0.000954038	0.00861946
7695.95	-0.00091589	0.00903365
7704.95	-0.000973113	0.00878144
7713.95	-0.000896816	0.00864458
7722.95	-0.000896816	0.00870747
7731.95	-0.000839594	0.00868664
7740.95	-0.000858668	0.00882867
7749.95	-0.00091589	0.00871083
7758.95	-0.000839594	0.0091516
7767.95	-0.000896816	0.00884948
7776.95	-0.000782372	0.00905141
7785.95	-0.000877742	0.008946
7794.95	-0.000839594	0.00882324
7803.95	-0.000934964	0.00885161
7812.95	-0.000763297	0.0087184
7821.95	-0.000934964	0.00900729
7830.95	-0.00082052	0.00886869
7839.95	-0.000858668	0.00928086
7848.95	-0.00082052	0.00897564
7857.95	-0.000839594	0.00893739
7866.95	-0.000992187	0.00903094
7875.95	-0.000763297	0.00894252
7884.95	-0.000839594	0.00908493
7893.95	-0.000954038	0.00899086
7902.95	-0.000896816	0.00935072
7911.95	-0.000858668	0.00902319
7920.95	-0.00103033	0.00921091
7929.95	-0.000782372	0.00914119
7938.95	-0.00101126	0.00899567
7947.95	-0.000896816	0.00907033
7956.95	-0.000858668	0.00908088
7965.95	-0.00104941	0.00926491
7974.95	-0.000896816	0.00921293
7983.95	-0.00082052	0.00932919
7992.95	-0.000896816	0.00910703
8001.95	-0.000839594	0.00923414
8010.95	-0.00091589	0.00925287
8019.95	-0.000839594	0.00899932
8028.95	-0.00082052	0.00922695
8037.95	-0.00101126	0.00907049
8046.95	-0.00082052	0.00947847
8055.95	-0.000896816	0.00910817
8064.95	-0.000973113	0.0095002
8073.95	-0.000992187	0.00926368
8082.95	-0.000763297	0.00908535
8091.95	-0.000934964	0.00922312
8100.95	-0.000801446	0.00886943
8109.95	-0.000839594	0.00923725
8118.95	-0.000973113	0.00933248
8127.95	-0.00091589	0.0095635
8136.95	-0.000877742	0.00931939
8145.95	-0.000858668	0.00940835
8154.95	-0.000896816	0.00921953
8163.95	-0.000839594	0.00917734
8172.95	-0.000954038	0.00929369
8181.95	-0.000954038	0.00918811
8190.95	-0.000954038	0.00958905
8199.95	-0.000896816	0.00935258
8208.95	-0.000858668	0.00955821
8217.95	-0.000973113	0.00922292
8226.95	-0.00103033	0.00927645
8235.95	-0.000858668	0.00929351
8244.95	-0.000877742	0.00925769
8253.95	-0.000896816	0.00946257
8262.95	-0.000934964	0.00928177
8271.95	-0.000839594	0.00965286
8280.95	-0.000973113	0.00938642
8289.95	-0.000877742	0.00950594
8298.95	-0.000801446	0.00937525
8307.95	-0.000992187	0.0091949
8316.95	-0.000992187	0.00946079
8325.95	-0.000954038	0.00933655
8334.95	-0.00082052	0.00955404
8343.95	-0.000896816	0.00933896
8352.95	-0.000858668	0.00960481
8361.95	-0.000801446	0.00940343
8370.95	-0.000801446	0.00940247
8379.95	-0.000954038	0.00950058
8388.95	-0.000877742	0.00920737
8397.95	-0.000896816	0.00956507
8406.95	-0.000839594	0.00949411
8415.95	-0.00101126	0.0097904
8424.95	-0.000877742	0.00937746
8433.95	-0.000801446	0.00951652
8442.95	-0.000858668	0.00951307
8451.95	-0.000896816	0.0094093
8460.95	-0.00091589	0.00937754
8469.95	-0.00082052	0.00946174
8478.95	-0.000896816	0.00982705
8487.95	-0.000973113	0.00958673
8496.95	-0.000934964	0.00969024
8505.95	-0.000877742	0.00968644
8514.95	-0.00091589	0.00945641
8523.95	-0.00103033	0.00950438
8532.95	-0.000801446	0.00953754
8541.95	-0.000954038	0.0096621
8550.95	-0.000801446	0.00958253
8559.95	-0.000992187	0.009888
8568.95	-0.000782372	0.0096114
8577.95	-0.000973113	0.00974807
8586.95	-0.00103033	0.0096776
8595.95	-0.000744223	0.00964633
8604.95	-0.000782372	0.00957826
8613.95	-0.000858668	0.00955032
8622.95	-0.000877742	0.00982974
8631.95	-0.00091589	0.00951599
8640.95	-0.000801446	0.0100011
8649.95	-0.00091589	0.00959064
8658.95	-0.000763297	0.0096717
8667.95	-0.000839594	0.00967429
8676.95	-0.00101126	0.00951801
8685.95	-0.000801446	0.0097521
8694.95	-0.00082052	0.00977301
8703.95	-0.000954038	0.00995356
8712.95	-0.000858668	0.00974132
8721.95	-0.000896816	0.00990787
8730.95	-0.00091589	0.0097659
8739.95	-0.000896816	0.00977532
8748.95	-0.000744223	0.00969026
8757.95	-0.000992187	0.00966023
8766.95	-0.00082052	0.00994679
8775.95	-0.000896816	0.0096843
8784.95	-0.00082052	0.00999289
8793.95	-0.000839594	0.00982646
8802.95	-0.000763297	0.00974988
8811.95	-0.000782372	0.0098162
8820.95	-0.000896816	0.00972871
8829.95	-0.000877742	0.00987939
8838.95	-0.00091589	0.00970804
8847.95	-0.000877742	0.0101264
8856.95	-0.000954038	0.00992253
8865.95	-0.000877742	0.0100891
8874.95	-0.000954038	0.00990324
8883.95	-0.000877742	0.0097696
8892.95	-0.000782372	0.00979796
8901.95	-0.000992187	0.00990989
8910.95	-0.000839594	0.00999234
8919.95	-0.000896816	0.00987962
8928.95	-0.000896816	0.0102982
8937.95	-0.000973113	0.00989162
8946.95	-0.000973113	0.0099837
8955.95	-0.000934964	0.00993618
8964.95	-0.000934964	0.00982237
8973.95	-0.000877742	0.00990273
8982.95	-0.000877742	0.00990756
8991.95	-0.00091589	0.010178
9000.95	-0.000763297	0.00992862
9009.95	-0.00082052	0.0102173
9018.95	-0.00082052	0.0100495
9027.95	-0.000782372	0.010028
9036.95	-0.000934964	0.00996712
9045.95	-0.000877742	0.00992954
9054.95	-0.000877742	0.0101243
9063.95	-0.000782372	0.0100408
9072.95	-0.00082052	0.0103531
9081.95	-0.000877742	0.0100474
9090.95	-0.000934964	0.0101087
9099.95	-0.000954038	0.00985765
9108.95	-0.000954038	0.00993596
9117.95	-0.000858668	0.0101372
9126.95	-0.00104941	0.00984806
9135.95	-0.00091589	0.010361
9144.95	-0.000763297	0.0100862
9153.95	-0.000763297	0.0103312
9162.95	-0.000858668	0.0100834
9171.95	-0.00101126	0.0100882
9180.95	-0.000896816	0.0100389
9189.95	-0.00082052	0.01008
9198.95	-0.000973113	0.0102528
9207.95	-0.00091589	0.0101857
9216.95	-0.000744223	0.010392
9225.95	-0.000954038	0.0101977
9234.95	-0.000744223	0.0101781
9243.95	-0.000839594	0.0101967
9252.95	-0.00091589	0.0100536
9261.95	-0.000839594	0.0102494
9270.95	-0.000934964	0.00999136
9279.95	-0.000782372	0.0104638
9288.95	-0.000839594	0.0101528
9297.95	-0.000896816	0.0103678
9306.95	-0.00082052	0.0101779
9315.95	-0.000782372	0.010165
9324.95	-0.00082052	0.0102242
9333.95	-0.000839594	0.0100141
9342.95	-0.000744223	0.0103396
9351.95	-0.00104941	0.0101527
9360.95	-0.00082052	0.0105327
9369.95	-0.000954038	0.010207
9378.95	-0.000839594	0.0103645
9387.95	-0.000858668	0.0102318
9396.95	-0.000877742	0.0102212
9405.95	-0.00091589	0.0102094
9414.95	-0.000934964	0.0101423
9423.95	-0.000858668	0.0104446
9432.95	-0.000934964	0.0102957
9441.95	-0.000934964	0.0105826
9450.95	-0.000896816	0.0102831
9459.95	-0.000839594	0.0102381
9468.95	-0.000858668	0.0102852
9477.95	-0.000954038	0.0101654
9486.95	-0.000801446	0.0105
9495.95	-0.000858668	0.0101939
9504.95	-0.000858668	0.0106774
9513.95	-0.000744223	0.0103475
9522.95	-0.000896816	0.0104004
9531.95	-0.000954038	0.0103391
9540.95	-0.00108756	0.0102946
9549.95	-0.000934964	0.0103542
9558.95	-0.00082052	0.0103109
9567.95	-0.000954038	0.0105602
9576.95	-0.000782372	0.0103474
9585.95	-0.000877742	0.0105989
9594.95	-0.000839594	0.0104153
9603.95	-0.000877742	0.0102856
9612.95	-0.000782372	0.0102298
9621.95	-0.000877742	0.0102689
9630.95	-0.000992187	0.0104042
9639.95	-0.000858668	0.0102589
9648.95	-0.000934964	0.0106169
9657.95	-0.00082052	0.0103838
9666.95	-0.00101126	0.0104453
9675.95	-0.000973113	0.0104471
9684.95	-0.000763297	0.0103133
9693.95	-0.000877742	0.0103964
9702.95	-0.00091589	0.0102897
9711.95	-0.000782372	0.010643
9720.95	-0.000896816	0.0103913
9729.95	-0.000877742	0.0106667
9738.95	-0.000782372	0.010405
9747.95	-0.000763297	0.0102811
9756.95	-0.000744223	0.0103525
9765.95	-0.00091589	0.010301
9774.95	-0.000934964	0.0104197
9783.95	-0.000896816	0.010256
9792.95	-0.00101126	0.0108508
9801.95	-0.00091589	0.0103262
9810.95	-0.00091589	0.0105476
9819.95	-0.000782372	0.0104337
9828.95	-0.000801446	0.0102556
9837.95	-0.000858668	0.0103468
9846.95	-0.000896816	0.0102654
9855.95	-0.000896816	0.0105776
9864.95	-0.000839594	0.010423
9873.95	-0.000782372	0.0106927
9882.95	-0.00103033	0.0103808
9891.95	-0.000954038	0.0102964
9900.95	-2.00082	-169.366
9909.95	-2.00091	-99.1027
9918.95	-2.00089	-63.7905
9927.95	-2.00085	-45.218
9936.95	-2.00093	-34.131
9945.95	-2.00095	-27.7573
9954.95	-2.00078	-23.7059
9963.95	-2.00101	-20.7749
9972.95	-2.0008	-18.5008
9981.95	-2.0008	-16.7342
9990.95	-2.00085	-15.2978
9999.95	-2.00085	-14.099
10009	-2.00084	-13.0935
10018	-2.00089	-12.2165
10027	-2.00078	-11.4648
10036	-2.00076	-10.8003
10045	-2.00085	-10.2238
10054	-2.00076	-9.70905
10063	-2.00099	-9.25736
10072	-2.0008	-8.80715
10081	-2.00085	-8.45999
10090	-2.00074	-8.16189
10099	-2.00085	-7.86587
10108	-2.00095	-7.58287
10117	-2.00089	-7.35363
10126	-2.00074	-7.13158
10135	-2.0008	-6.91834
10144	-2.00095	-6.71893
10153	-2.00087	-6.53997
10162	-2.0008	-6.37984
10171	-2.00076	-6.23162
10180	-2.00099	-6.09449
10189	-2.00099	-5.96544
10198	-2.00091	-5.84372
10207	-2.00093	-5.73418
10216	-2.00082	-5.62762
10225	-2.00087	-5.53053
10234	-2.00097	-5.44922
10243	-2.0008	-5.36886
10252	-2.00099	-5.29208
10261	-2.00085	-5.21477
10270	-2.00095	-5.13793
10279	-2.00097	-5.07404
10288	-2.00076	-5.0081
10297	-2.00074	-4.93576
10306	-2.00087	-4.84799
10315	-2.0008	-4.84979
10324	-2.00091	-4.80405
10333	-2.00072	-4.75212
10342	-2.00076	-4.71023
10351	-2.00082	-4.66759
10360	-2.00095	-4.63115
10369	-2.00084	-4.61235
10378	-2.00095	-4.57502
10387	-2.00089	-4.52919
10396	-2.00078	-4.48059
10405	-2.00087	-4.42894
10414	-2.00084	-4.42259
10423	-2.00089	-4.39247
10432	-2.00095	-4.36989
10441	-2.00093	-4.34436
10450	-2.00091	-4.31941
10459	-2.00095	-4.29471
10468	-2.00097	-4.26921
10477	-2.00078	-4.24534
10486	-2.0008	-4.22408
10495	-2.00091	-4.20812
10504	-2.00089	-4.17218
10513	-2.00082	-4.17362
10522	-2.00087	-4.15873
10531	-2.00093	-4.12075
10540	-2.00084	-4.10233
10549	-2.00082	-4.08389
10558	-2.00095	-4.06567
10567	-2.00082	-4.05235
10576	-2.0008	-4.03626
10585	-2.0008	-4.02144
10594	-2.00074	-3.99061
10603	-2.00082	-3.98421
10612	-2.00099	-3.97644
10621	-2.00087	-3.9655
10630	-2.00078	-3.97303
10639	-2.00068	-3.95888
10648	-2.00087	-3.96642
10657	-2.00072	-3.9339
10666	-2.0008	-3.91448
10675	-2.00095	-3.90554
10684	-2.0008	-3.88337
10693	-2.00084	-3.86249
10702	-2.00089	-3.87059
10711	-2.00084	-3.87403
10720	-2.00082	-3.86529
10729	-2.00078	-3.85637
10738	-2.00084	-3.85139
10747	-2.00087	-3.84321
10756	-2.00089	-3.84939
10765	-2.00091	-3.85438
10774	-2.00095	-3.84584
10783	-2.00072	-3.82581
10792	-2.00091	-3.81947
10801	-0.000934964	218.958
10810	-0.000858668	10.8938
10819	-0.000744223	4.73744
10828	-0.00082052	3.07397
10837	-0.000877742	2.28802
10846	-0.000858668	1.86551
10855	-0.000801446	1.59537
10864	-0.000801446	1.42427
10873	-0.000839594	1.28754
10882	-0.00082052	1.19851
10891	-0.000896816	1.11621
10900	-0.000801446	1.05839
10909	-0.00091589	1.00838
10918	-0.00103033	0.966754
10927	-0.000839594	0.93528
10936	-0.000934964	0.902591
10945	-0.000782372	0.882187
10954	-0.000801446	0.854102
10963	-0.000763297	0.836649
10972	-0.000954038	0.814955
10981	-0.000954038	0.798339
10990	-0.000973113	0.783863
10999	-0.000839594	0.768071
11008	-0.000934964	0.758314
11017	-0.00101126	0.743143
11026	-0.000725149	0.735754
11035	-0.000858668	0.721838
11044	-0.00091589	0.713253
11053	-0.000934964	0.703516
11062	-0.000763297	0.69443
11071	-0.000934964	0.68815
11080	-0.000973113	0.679503
11089	-0.000973113	0.676209
11098	-0.000934964	0.666624
11107	-0.00082052	0.663028
11116	-0.00103033	0.655174
11125	-0.000992187	0.650293
11134	-0.000877742	0.645322
11143	-0.000839594	0.639773
11152	-0.00082052	0.637644
11161	-0.000839594	0.631304
11170	-0.000896816	0.630452
11179	-0.000896816	0.623858
11188	-0.000896816	0.62112
11197	-0.000782372	0.616956
11206	-0.000934964	0.613234
11215	-0.000877742	0.611521
11224	-0.000896816	0.607265
11233	-0.000687001	0.607001
11242	-0.00091589	0.601882
11251	-0.000839594	0.601114
11260	-0.000934964	0.597034
11269	-0.00091589	0.594298
11278	-0.00091589	0.592279
11287	-0.000934964	0.589019
11296	-0.000858668	0.588702
11305	-0.000896816	0.584665
11314	-0.000954038	0.584878
11323	-0.00091589	0.580287
11332	-0.000934964	0.579019
11341	-0.000992187	0.576195
11350	-0.00103033	0.573297
11359	-0.000877742	0.57239
11368	-0.00103033	0.569031
11377	-0.00103033	0.569027
11386	-0.000839594	0.564861
11395	-0.000877742	0.564335
11404	-0.000896816	0.560826
11413	-0.00091589	0.558261
11422	-0.000973113	0.55623
11431	-0.000858668	0.553427
11440	-0.000839594	0.552862
11449	-0.00082052	0.549036
11458	-0.000992187	0.549146
11467	-0.000877742	0.544783
11476	-0.000973113	0.543468
11485	-0.000839594	0.540406
11494	-0.000954038	0.537716
11503	-0.00082052	0.536149
11512	-0.000877742	0.533001
11521	-0.000896816	0.532452
11530	-0.000992187	0.528174
11539	-0.000725149	0.527533
11548	-0.000973113	0.523447
11557	-0.000954038	0.521114
11566	-0.00082052	0.518772
11575	-0.000954038	0.515722
11584	-0.00103033	0.514279
11593	-0.000973113	0.510538
11602	-0.00082052	0.509918
11611	-0.000763297	0.50564
11620	-0.00116385	0.503617
11629	-0.000934964	0.5003
11638	-0.000992187	0.497353
11647	-0.000858668	0.495388
11656	-0.00091589	0.491899
11665	-0.000934964	0.490769
11674	-0.000973113	0.486947
11683	-0.000858668	0.48551
11692	-0.000858668	0.479457
11701	-0.000896816	0.476627
11710	-0.00110663	0.473868
11719	-0.000877742	0.470505
11728	-0.000992187	0.468879
11737	-0.000896816	0.464997
11746	-0.000954038	0.463794
11755	-0.000687001	0.459564
11764	-0.000763297	0.457476
11773	-0.00082052	0.453947
11782	-0.00106848	0.450696
11791	-0.000725149	0.448697
11800	-0.000858668	0.444834
11809	-0.000839594	0.443302
11818	-0.000706075	0.439369
11827	-0.00082052	0.437803
11836	-0.00103033	0.433515
11845	-0.00103033	0.431022
11854	-0.000896816	0.428046
11863	-0.00082052	0.424805
11872	-0.000973113	0.422602
11881	-0.000896816	0.419219
11890	-0.000858668	0.417587
11899	-0.000992187	0.413534
11908	-0.000877742	0.411284
11917	-0.000954038	0.407822
11926	-0.000858668	0.404746
11935	-0.000858668	0.40231
11944	-0.000839594	0.398973
11953	-0.000934964	0.397263
11962	-0.000973113	0.393224
11971	-0.000973113	0.391723
11980	-0.000877742	0.387793
11989	-0.000839594	0.385155
11998	-0.00091589	0.382299
12007	-0.00101126	0.379085
12016	-0.000992187	0.377093
12025	-0.00091589	0.37371
12034	-0.000954038	0.372213
12043	-0.000934964	0.368483
12052	-0.000896816	0.366452
12061	-0.000877742	0.362993
12070	-0.000839594	0.360057
12079	-0.000896816	0.357742
12088	-0.000877742	0.354583
12097	-0.000992187	0.35302
12106	-0.000877742	0.349602
12115	-0.000992187	0.348254
12124	-0.000877742	0.344349
12133	-0.000934964	0.342153
12142	-0.000801446	0.339341
12151	-0.000973113	0.33646
12160	-0.000973113	0.33453
12169	-0.00091589	0.331588
12178	-0.000706075	0.330217
12187	-0.00082052	0.326827
12196	-0.000858668	0.325104
12205	-0.000896816	0.322002
12214	-0.000610705	0.319362
12223	-0.00091589	0.317182
12232	-0.00091589	0.314357
12241	-0.00091589	0.313113
12250	-0.000896816	0.309845
12259	-0.000973113	0.308944
12268	-0.00101126	0.305536
12277	-0.000973113	0.303322
12286	-0.000954038	0.301001
12295	-0.000839594	0.298343
12304	-0.000877742	0.296611
12313	-0.000877742	0.293885
12322	-0.000934964	0.292925
12331	-0.00091589	0.289937
12340	-0.000782372	0.288509
12349	-0.000858668	0.285691
12358	-0.000858668	0.283543
12367	-0.000877742	0.281705
12376	-0.000973113	0.279255
12385	-0.000801446	0.278087
12394	-0.000896816	0.275483
12403	-0.000954038	0.274626
12412	-0.000744223	0.271881
12421	-0.000725149	0.270316
12430	-0.000896816	0.268199
12439	-0.000782372	0.265827
12448	-0.000763297	0.264738
12457	-0.000839594	0.262298
12466	-0.00082052	0.261645
12475	-0.000858668	0.259153
12484	-0.00091589	0.258068
12493	-0.000877742	0.255782
12502	-0.000801446	0.254039
12511	-0.00103033	0.252536
12520	-0.000877742	0.25043
12529	-0.000896816	0.249478
12538	-0.000896816	0.24735
12547	-0.00091589	0.24685
12556	-0.00082052	0.244519
12565	-0.000896816	0.24304
12574	-0.000973113	0.241229
12583	-0.000858668	0.239566
12592	-0.000954038	0.238521
12601	-0.000763297	0.236414
12610	-0.000954038	0.23593
12619	-0.000896816	0.233946
12628	-0.000858668	0.233199
12637	-0.000782372	0.231141
12646	-0.000934964	0.229835
12655	-0.000725149	0.228534
12664	-0.00082052	0.226744
12673	-0.00091589	0.226172
12682	-0.000744223	0.224311
12691	-0.000877742	0.223852
12700	-0.000706075	0.221817
12709	-0.000992187	0.220885
12718	-0.000877742	0.219344
12727	-0.000954038	0.217812
12736	-0.00091589	0.216877
12745	-0.000934964	0.215442
12754	-0.00101126	0.214934
12763	-0.000839594	0.213168
12772	-0.000973113	0.212843
12781	-0.00103033	0.210992
12790	-0.000934964	0.209843
12799	-0.00091589	0.208523
12808	-0.000877742	0.207117
12817	-0.000801446	0.206672
12826	-0.00091589	0.205173
12835	-0.000896816	0.204886
12844	-0.000954038	0.203198
12853	-0.000896816	0.202682
12862	-0.000934964	0.200982
12871	-0.00091589	0.199796
12880	-0.000839594	0.199129
12889	-0.000858668	0.197704
12898	-0.000934964	0.197432
12907	-0.000896816	0.195977
12916	-0.00104941	0.195689
12925	-0.00091589	0.194092
12934	-0.00106848	0.193373
12943	-0.00101126	0.192204
12952	-0.000934964	0.191105
12961	-0.000725149	0.19048
12970	-0.000858668	0.189183
12979	-0.000934964	0.189217
12988	-0.000858668	0.187639
12997	-0.000934964	0.187285
13006	-0.000858668	0.186029
13015	-0.000858668	0.184684
13024	-0.000896816	0.184147
13033	-0.000896816	0.183061
13042	-0.000877742	0.182798
13051	-0.000706075	0.181645
13060	-0.000973113	0.18152
13069	-0.000782372	0.180041
13078	-0.000782372	0.17945
13087	-0.000763297	0.178376
13096	-0.000858668	0.177551
13105	-0.000954038	0.177116
13114	-0.000896816	0.17603
13123	-0.000954038	0.176113
13132	-0.000763297	0.174717
13141	-0.000896816	0.174516
13150	-0.000839594	0.173258
13159	-0.000801446	0.1725
13168	-0.000896816	0.171756
13177	-0.00091589	0.171017
13186	-0.000782372	0.170748
13195	-0.00091589	0.169767
13204	-0.000992187	0.169773
13213	-0.000954038	0.168515
13222	-0.00082052	0.167956
13231	-0.000801446	0.167106
13240	-0.00091589	0.166247
13249	-0.000896816	0.166091
13258	-0.000877742	0.165199
13267	-0.000763297	0.165148
13276	-0.000801446	0.163966
13285	-0.000839594	0.16397
13294	-0.000877742	0.162825
13303	-0.00082052	0.162224
13312	-0.000801446	0.161571
13321	-0.000858668	0.160797
13330	-0.000896816	0.160729
13339	-0.000801446	0.159694
13348	-0.000877742	0.159755
13357	-0.00091589	0.1588
13366	-0.000934964	0.158244
13375	-0.000954038	0.157587
13384	-0.000839594	0.156839
13393	-0.000877742	0.156768
13402	-0.000839594	0.155673
13411	-0.000954038	0.155857
13420	-0.00082052	0.155033
13429	-0.000763297	0.154897
13438	-0.000877742	0.15388
13447	-0.000858668	0.153198
13456	-0.000973113	0.152933
13465	-0.00091589	0.152243
13474	-0.000954038	0.152084
13483	-0.000858668	0.151239
13492	-0.000973113	0.151447
13500	-0.000763297	0.150277