File: Data_34_Experiment/CA_272_060_minutes_C01.txt
time/s	Ewe/V	<I>/mA
1	1.49953	135.412
12	1.49968	34.896
23	1.49957	25.7071
34	1.49957	22.5301
45	1.49953	20.4311
56	1.49957	18.7605
67	1.4993	17.3059
78	1.49945	15.6633
89	1.49951	14.7338
100	1.49955	13.9788
111	1.49966	13.1863
122	1.49961	12.4442
133	1.49957	11.8042
144	1.49949	11.3866
155	1.49945	11.0652
166	1.49949	10.6811
177	1.49941	10.3537
188	1.49951	10.1552
199	1.49949	10.0699
210	1.49955	9.83836
221	1.49928	9.62343
232	1.49953	9.50339
243	1.49968	9.53365
254	1.49966	9.38407
265	1.49962	9.25559
276	1.49959	9.14529
287	1.49957	9.23077
298	1.49938	9.12282
309	1.4994	9.03795
320	1.49949	8.93494
331	1.4997	9.03019
342	1.49966	8.94465
353	1.49968	8.86528
364	1.49936	8.75519
375	1.49951	8.84604
386	1.49964	8.79025
397	1.49959	8.70428
408	1.49964	8.60356
419	1.49957	8.66972
430	1.49964	8.6261
441	1.49957	8.54997
452	1.49964	8.45029
463	1.49951	8.48511
474	1.49976	8.46925
485	1.49959	8.35735
496	1.49961	8.25324
507	1.49941	8.25053
518	1.49953	8.25541
529	1.49957	8.15039
540	1.49947	8.05527
551	1.49959	8.01927
562	1.49945	8.04267
573	1.49941	7.94033
584	1.49945	7.84013
595	1.49951	7.76864
606	1.49949	7.80306
617	1.49955	7.70266
628	1.49961	7.60778
639	1.49957	7.49996
650	1.4994	7.54106
661	1.49941	7.44522
672	1.49949	7.34516
683	1.49953	7.22996
694	1.49962	7.26257
705	1.49951	7.17322
716	1.49951	7.10917
727	1.49968	6.98581
738	1.4997	7.00865
749	1.49953	6.93829
760	1.49974	6.84691
771	1.49961	6.7282
782	1.49953	6.73358
793	1.49947	6.68091
804	1.49959	6.59316
815	1.49947	6.47925
826	1.49943	6.4721
837	1.49955	6.44475
848	1.49953	6.35511
859	1.49947	6.25265
870	1.49943	6.21559
881	1.49947	6.21289
892	1.49947	6.12654
903	1.49951	6.03158
914	1.49945	5.97019
925	1.49957	5.98802
936	1.49953	5.90965
947	1.49953	5.82516
958	1.49945	5.74923
969	1.49941	5.7804
980	1.49959	5.70507
991	1.49943	5.62384
1002	1.49949	5.53259
1013	1.49947	5.57375
1024	1.49949	5.5038
1035	1.49951	5.42684
1046	1.49962	5.32772
1057	1.49966	5.36738
1068	1.49943	5.30694
1079	1.49949	5.23458
1090	1.49941	5.13231
1101	1.49953	5.16612
1112	1.49957	5.11989
1123	1.49964	5.04753
1134	1.49959	4.94828
1145	1.49953	4.96846
1156	1.49955	4.93877
1167	1.49949	4.84035
1178	1.49951	4.74184
1189	1.49949	4.74866
1200	1.49953	4.7381
1211	1.49949	4.66924
1222	1.49961	4.57893
1233	1.49955	4.56032
1244	1.4994	4.56736
1255	1.49951	4.4954
1266	1.49955	4.41018
1277	1.49943	4.36788
1288	1.49957	4.38923
1299	1.49951	4.31707
1310	1.49964	4.23654
1321	1.49968	4.16914
1332	1.49941	4.20382
1343	1.49951	4.13306
1354	1.49953	4.05842
1365	1.49962	3.98342
1376	1.49943	4.02845
1387	1.49962	3.95712
1398	1.49947	3.88283
1409	1.49962	3.79815
1420	1.49943	3.84603
1431	1.49943	3.78741
1442	1.49962	3.71848
1453	1.49961	3.6286
1464	1.4994	3.67735
1475	1.49947	3.62826
1486	1.49962	3.56802
1497	1.49959	3.47424
1508	1.49957	3.50294
1519	1.49947	3.46443
1530	1.49961	3.40408
1541	1.49951	3.34986
1552	1.49964	3.39452
1563	1.49949	3.36797
1574	1.49941	3.30694
1585	1.49943	3.21917
1596	1.49966	3.21089
1607	1.49968	3.23986
1618	1.49968	3.14974
1629	1.49964	3.06476
1640	1.49941	3.06278
1651	1.49941	3.07618
1662	1.49943	3.013
1673	1.49947	2.94121
1684	1.49955	2.92241
1695	1.49943	2.96213
1706	1.49949	2.89292
1717	1.49964	2.82319
1728	1.49953	2.79987
1739	1.49961	2.86199
1750	1.49951	2.80481
1761	1.49959	2.73855
1772	1.49947	2.69213
1783	1.49959	2.77035
1794	1.49949	2.72178
1805	1.49957	2.65841
1816	1.49951	2.59681
1827	1.49955	2.68222
1838	1.49945	2.63273
1849	1.49941	2.57252
1860	1.49953	2.50899
1871	1.49957	2.59572
1882	1.49947	2.56393
1893	1.49955	2.5077
1904	1.49974	2.43357
1915	1.49938	2.50588
1926	1.49959	2.4911
1937	1.49949	2.43651
1948	1.49936	2.37825
1959	1.49953	2.44648
1970	1.49955	2.44829
1981	1.49949	2.3995
1992	1.49961	2.33897
2003	1.49968	2.40253
2014	1.49957	2.42648
2025	1.49961	2.37304
2036	1.49957	2.31047
2047	1.49953	2.32794
2058	1.49953	2.37123
2069	1.49947	2.32075
2080	1.49947	2.27988
2091	1.49941	2.29666
2102	1.49957	2.34519
2113	1.49953	2.30682
2124	1.49955	2.26205
2135	1.49959	2.24826
2146	1.49951	2.32058
2157	1.49947	2.27319
2168	1.49949	2.22208
2179	1.49949	2.20813
2190	1.49961	2.28838
2201	1.49955	2.24672
2212	1.49962	2.20643
2223	1.49961	2.17392
2234	1.49943	2.25985
2245	1.49953	2.22761
2256	1.49943	2.18613
2267	1.49953	2.14672
2278	1.49951	2.22581
2289	1.49949	2.20337
2300	1.49955	2.15566
2311	1.49968	2.12422
2322	1.49955	2.19049
2333	1.49957	2.1848
2344	1.49968	2.14346
2355	1.49961	2.1035
2366	1.49938	2.15727
2377	1.49949	2.1737
2388	1.49961	2.13168
2399	1.49943	2.09474
2410	1.49945	2.12781
2421	1.49947	2.15891
2432	1.49945	2.11643
2443	1.49955	2.07763
2454	1.49947	2.09251
2465	1.49934	2.13703
2476	1.49959	2.0961
2487	1.49938	2.06132
2498	1.49947	2.0606
2509	1.49966	2.11749
2520	1.49962	2.0841
2531	1.49951	2.04889
2542	1.49964	2.03982
2553	1.49947	2.10649
2564	1.49957	2.06758
2575	1.49968	2.03717
2586	1.49941	2.01004
2597	1.49955	2.08763
2608	1.49936	2.06237
2619	1.49957	2.03187
2630	1.49955	2.00573
2641	1.49949	2.0612
2652	1.49943	2.05623
2663	1.49949	2.02794
2674	1.49947	2.00903
2685	1.49953	2.06687
2696	1.49951	2.05749
2707	1.49959	2.02803
2718	1.49953	1.9971
2729	1.49961	2.05209
2740	1.49962	2.05711
2751	1.49953	2.02652
2762	1.49959	2.00259
2773	1.49959	2.03543
2784	1.49951	2.0538
2795	1.49943	2.01748
2806	1.49951	1.98962
2817	1.49949	2.00698
2828	1.49957	2.03693
2839	1.49953	2.0028
2850	1.49959	1.97696
2861	1.49955	1.986
2872	1.49961	2.02685
2883	1.49959	1.99456
2894	1.49951	1.96997
2905	1.49953	1.96598
2916	1.49957	2.01171
2927	1.49953	1.9858
2938	1.49934	1.96028
2949	1.49962	1.95874
2960	1.49951	2.01493
2971	1.49953	1.98975
2982	1.49953	1.96338
2993	1.49955	1.94675
3004	1.49966	2.00643
3015	1.49949	1.9894
3026	1.49945	1.96493
3037	1.49957	1.947
3048	1.49945	1.99348
3059	1.49953	1.98281
3070	1.49941	1.95723
3081	1.49953	1.93701
3092	1.49966	1.97543
3103	1.49949	1.97484
3114	1.4994	1.95017
3125	1.49972	1.9295
3136	1.49976	1.96232
3147	1.49951	1.97215
3158	1.49959	1.94405
3169	1.49955	1.92413
3180	1.49951	1.94179
3191	1.49955	1.9556
3202	1.49943	1.9268
3213	1.49947	1.90718
3224	1.49945	1.91616
3235	1.49951	1.94475
3246	1.49945	1.92077
3257	1.49949	1.9001
3268	1.49953	1.90228
3279	1.49945	1.93669
3290	1.49945	1.912
3301	1.49964	1.89245
3312	1.49953	1.88844
3323	1.49962	1.92392
3334	1.49945	1.89825
3345	1.49962	1.87906
3356	1.49951	1.86329
3367	1.49962	1.9227
3378	1.49947	1.91319
3389	1.49966	1.89988
3400	1.49957	1.88829
3411	1.49945	1.92574
3422	1.49955	1.91352
3433	1.49947	1.89367
3444	1.49955	1.87945
3455	1.49938	1.9119
3466	1.49961	1.90734
3477	1.49951	1.88739
3488	1.49957	1.87211
3499	1.4997	1.89849
3510	1.49953	1.90231
3521	1.49951	1.88115
3532	1.49961	1.86632
3543	1.49957	1.8845
3554	1.49955	1.89777
3565	1.49957	1.87581
3576	1.4994	1.86052
3587	1.49949	1.87208
3598	1.49962	1.89415
3608.95	-0.000877742	-2.84167
3619.95	-0.000954038	-1.13472
3630.95	-0.000896816	-0.701571
3641.95	-0.000858668	-0.501384
3652.95	-0.000934964	-0.389347
3663.95	-0.000801446	-0.314309
3674.95	-0.000839594	-0.263395
3685.95	-0.000896816	-0.225986
3696.95	-0.000896816	-0.197784
3707.95	-0.00101126	-0.176155
3718.95	-0.000839594	-0.158988
3729.95	-0.000992187	-0.14455
3740.95	-0.000992187	-0.132164
3751.95	-0.000954038	-0.121845
3762.95	-0.00091589	-0.113072
3773.95	-0.000896816	-0.104998
3784.95	-0.00101126	-0.0978192
3795.95	-0.000839594	-0.0919118
3806.95	-0.000877742	-0.0865288
3817.95	-0.000954038	-0.0816685
3828.95	-0.000934964	-0.0771908
3839.95	-0.00082052	-0.0733526
3850.95	-0.000992187	-0.0700482
3861.95	-0.000877742	-0.0666788
3872.95	-0.000877742	-0.0636539
3883.95	-0.000858668	-0.0610827
3894.95	-0.000877742	-0.0587017
3905.95	-0.000954038	-0.0563497
3916.95	-0.00091589	-0.0540045
3927.95	-0.000992187	-0.0522333
3938.95	-0.00103033	-0.0502879
3949.95	-0.00091589	-0.0488006
3960.95	-0.000782372	-0.0469976
3971.95	-0.00091589	-0.0456039
3982.95	-0.000858668	-0.0441348
3993.95	-0.000801446	-0.0427089
4004.95	-0.000801446	-0.0411745
4015.95	-0.000858668	-0.0402481
4026.95	-0.000877742	-0.0391773
4037.95	-0.000992187	-0.0382572
4048.95	-0.000839594	-0.0368996
4059.95	-0.000858668	-0.0361057
4070.95	-0.000839594	-0.0351874
4081.95	-0.000954038	-0.0343983
4092.95	-0.00091589	-0.0333355
4103.95	-0.000858668	-0.0327239
4114.95	-0.000896816	-0.0319772
4125.95	-0.000896816	-0.0313476
4136.95	-0.000839594	-0.0304005
4147.95	-0.000839594	-0.0299856
4158.95	-0.000801446	-0.0293619
4169.95	-0.000858668	-0.0287792
4180.95	-0.000858668	-0.0280288
4191.95	-0.000992187	-0.0276917
4202.95	-0.00082052	-0.0272605
4213.95	-0.000801446	-0.0267693
4224.95	-0.000934964	-0.0260841
4235.95	-0.000877742	-0.0257709
4246.95	-0.000839594	-0.0254201
4257.95	-0.000744223	-0.0249547
4268.95	-0.000782372	-0.0244988
4279.95	-0.000744223	-0.02408
4290.95	-0.000896816	-0.023761
4301.95	-0.000954038	-0.0233817
4312.95	-0.000896816	-0.0230581
4323.95	-0.00103033	-0.0225924
4334.95	-0.000782372	-0.0224018
4345.95	-0.000934964	-0.0221364
4356.95	-0.00082052	-0.0218771
4367.95	-0.000782372	-0.021365
4378.95	-0.000992187	-0.0213005
4389.95	-0.000877742	-0.0209773
4400.95	-0.000877742	-0.0207872
4411.95	-0.000858668	-0.0203783
4422.95	-0.00101126	-0.0203305
4433.95	-0.000896816	-0.0200814
4444.95	-0.00082052	-0.019875
4455.95	-0.00091589	-0.0194141
4466.95	-0.000782372	-0.0194457
4477.95	-0.000858668	-0.0191691
4488.95	-0.00082052	-0.0189375
4499.95	-0.000896816	-0.0186309
4510.95	-0.000896816	-0.0184963
4521.95	-0.000839594	-0.0183047
4532.95	-0.00082052	-0.0181707
4543.95	-0.000934964	-0.0177916
4554.95	-0.000801446	-0.0178541
4565.95	-0.000763297	-0.0176737
4576.95	-0.000839594	-0.0175226
4587.95	-0.000877742	-0.0172035
4598.95	-0.000896816	-0.0171607
4609.95	-0.00091589	-0.0170384
4620.95	-0.00091589	-0.0168917
4631.95	-0.000896816	-0.0166942
4642.95	-0.000858668	-0.0165707
4653.95	-0.000782372	-0.0165589
4664.95	-0.000896816	-0.0164018
4675.95	-0.00091589	-0.0161676
4686.95	-0.00091589	-0.0159437
4697.95	-0.000858668	-0.0159905
4708.95	-0.000858668	-0.0157931
4719.95	-0.000782372	-0.0156824
4730.95	-0.000725149	-0.0153863
4741.95	-0.000973113	-0.0155079
4752.95	-0.00091589	-0.015217
4763.95	-0.000801446	-0.0152269
4774.95	-0.000896816	-0.0147956
4785.95	-0.000801446	-0.0150489
4796.95	-0.00091589	-0.0148276
4807.95	-0.000992187	-0.0147011
4818.95	-0.00082052	-0.0143169
4829.95	-0.000801446	-0.0146175
4840.95	-0.000763297	-0.0144918
4851.95	-0.000896816	-0.0142662
4862.95	-0.00091589	-0.0139164
4873.95	-0.000954038	-0.0141816
4884.95	-0.000934964	-0.0140529
4895.95	-0.000992187	-0.0139363
4906.95	-0.000954038	-0.0136463
4917.95	-0.000877742	-0.0138049
4928.95	-0.000858668	-0.0136577
4939.95	-0.000877742	-0.0135932
4950.95	-0.00091589	-0.0133298
4961.95	-0.000801446	-0.0133879
4972.95	-0.000858668	-0.0133647
4983.95	-0.000973113	-0.0132525
4994.95	-0.000801446	-0.0130341
5005.95	-0.000858668	-0.0130447
5016.95	-0.000896816	-0.0130047
5027.95	-0.000782372	-0.0129675
5038.95	-0.000896816	-0.0127901
5049.95	-0.000877742	-0.0127225
5060.95	-0.000858668	-0.012798
5071.95	-0.000858668	-0.0125779
5082.95	-0.000763297	-0.0124825
5093.95	-0.000858668	-0.0122118
5104.95	-0.000858668	-0.0123143
5115.95	-0.000744223	-0.0121993
5126.95	-0.000839594	-0.0120791
5137.95	-0.000877742	-0.0117475
5148.95	-0.000934964	-0.0117112
5159.95	-0.00091589	-0.0115917
5170.95	-0.000801446	-0.011528
5181.95	-0.000992187	-0.0111476
5192.95	-0.000954038	-0.0114761
5203.95	-0.000973113	-0.0113262
5214.95	-0.000858668	-0.0112611
5225.95	-0.00082052	-0.0108038
5236.95	-0.000896816	-0.0110898
5247.95	-0.000858668	-0.0109849
5258.95	-0.00082052	-0.0109247
5269.95	-0.000954038	-0.0106248
5280.95	-0.000858668	-0.0107061
5291.95	-0.000858668	-0.0106835
5302.95	-0.000954038	-0.010636
5313.95	-0.000896816	-0.0103305
5324.95	-0.00091589	-0.0104813
5335.95	-0.000858668	-0.010397
5346.95	-0.00112571	-0.0104263
5357.95	-0.000858668	-0.0102461
5368.95	-0.000934964	-0.010141
5379.95	-0.00103033	-0.010153
5390.95	-0.000877742	-0.0100143
5401.95	-0.000934964	-0.00993128
5412.95	-0.000896816	-0.00986673
5423.95	-0.000992187	-0.00985879
5434.95	-0.00091589	-0.00982846
5445.95	-0.000954038	-0.00968839
5456.95	-0.000896816	-0.00954483
5467.95	-0.000877742	-0.00964646
5478.95	-0.000782372	-0.00953726
5489.95	-0.00082052	-0.00953981
5500.95	-0.000934964	-0.00927967
5511.95	-0.000973113	-0.00942837
5522.95	-0.000992187	-0.0093539
5533.95	-0.000973113	-0.00934536
5544.95	-0.000858668	-0.00908459
5555.95	-0.000877742	-0.00933008
5566.95	-0.000858668	-0.00926393
5577.95	-0.000896816	-0.00922393
5588.95	-0.000896816	-0.00886971
5599.95	-0.000801446	-0.00914463
5610.95	-0.00091589	-0.00901739
5621.95	-0.000763297	-0.00900037
5632.95	-0.000877742	-0.00871853
5643.95	-0.00091589	-0.00875743
5654.95	-0.000839594	-0.00880185
5665.95	-0.000763297	-0.00869693
5676.95	-0.000782372	-0.00851197
5687.95	-0.000992187	-0.00859586
5698.95	-0.000877742	-0.00850665
5709.95	-0.000896816	-0.00846777
5720.95	-0.000782372	-0.00834685
5731.95	-0.000782372	-0.00826441
5742.95	-0.000858668	-0.00842874
5753.95	-0.000858668	-0.00824998
5764.95	-0.000858668	-0.00813091
5775.95	-0.000954038	-0.00821327
5786.95	-0.000877742	-0.00826473
5797.95	-0.000839594	-0.00822026
5808.95	-0.000973113	-0.00801643
5819.95	-0.000954038	-0.00799325
5830.95	-0.000934964	-0.00809576
5841.95	-0.000954038	-0.0079776
5852.95	-0.000801446	-0.0079576
5863.95	-0.000992187	-0.00776455
5874.95	-0.000782372	-0.00790128
5885.95	-0.00091589	-0.0078769
5896.95	-0.000934964	-0.00773436
5907.95	-0.000992187	-0.00750388
5918.95	-0.000801446	-0.00766494
5929.95	-0.00091589	-0.00764622
5940.95	-0.000896816	-0.00761161
5951.95	-0.000934964	-0.00724032
5962.95	-0.000782372	-0.00755661
5973.95	-0.000877742	-0.007528
5984.95	-0.000839594	-0.00742834
5995.95	-0.000782372	-0.00715877
6006.95	-0.00101126	-0.00737715
6017.95	-0.00082052	-0.00733807
6028.95	-0.000858668	-0.007296
6039.95	-0.000896816	-0.00715759
6050.95	-0.000877742	-0.00719936
6061.95	-0.000801446	-0.0072153
6072.95	-0.000763297	-0.00717084
6083.95	-0.000896816	-0.00706869
6094.95	-0.000954038	-0.00708269
6105.95	-0.000934964	-0.00700451
6116.95	-0.00103033	-0.00698986
6127.95	-0.000954038	-0.00688159
6138.95	-0.000858668	-0.00683702
6149.95	-0.000934964	-0.0068203
6160.95	-0.00082052	-0.00673541
6171.95	-0.00082052	-0.00668891
6182.95	-0.00091589	-0.00654746
6193.95	-0.000954038	-0.00669431
6204.95	-0.000801446	-0.00657176
6215.95	-0.000858668	-0.00658597
6226.95	-0.000877742	-0.00635114
6237.95	-0.000896816	-0.00651942
6248.95	-0.000954038	-0.00635687
6259.95	-0.000896816	-0.00631212
6270.95	-0.000954038	-0.00592264
6281.95	-0.000877742	-0.00624044
6292.95	-0.000954038	-0.00613123
6303.95	-0.000877742	-0.00611522
6314.95	-0.000934964	-0.00583771
6325.95	-0.000954038	-0.00608005
6336.95	-0.000896816	-0.00595359
6347.95	-0.000667927	-0.00602197
6358.95	-0.00104941	-0.00572912
6369.95	-0.000896816	-0.00588751
6380.95	-0.000763297	-0.00585597
6391.95	-0.00101126	-0.00582397
6402.95	-0.000877742	-0.00565699
6413.95	-0.000896816	-0.00572549
6424.95	-0.000934964	-0.00583123
6435.95	-0.000801446	-0.00572628
6446.95	-0.000954038	-0.00565408
6457.95	-0.00101126	-0.00561217
6468.95	-0.00106848	-0.00568672
6479.95	-0.000973113	-0.00565345
6490.95	-0.000954038	-0.00545874
6501.95	-0.00082052	-0.00556381
6512.95	-0.000896816	-0.00556429
6523.95	-0.000763297	-0.00546994
6534.95	-0.00082052	-0.00550555
6545.95	-0.000877742	-0.00524101
6556.95	-0.000934964	-0.00536666
6567.95	-0.000877742	-0.00533097
6578.95	-0.000896816	-0.00533692
6589.95	-0.000763297	-0.005078
6600.95	-0.000992187	-0.00531883
6611.95	-0.000992187	-0.00515003
6622.95	-0.000801446	-0.00522707
6633.95	-0.000934964	-0.00492568
6644.95	-0.00082052	-0.00515067
6655.95	-0.000973113	-0.0050108
6666.95	-0.00091589	-0.00513958
6677.95	-0.000877742	-0.00477571
6688.95	-0.000934964	-0.00506883
6699.95	-0.000744223	-0.00481763
6710.95	-0.000954038	-0.0050003
6721.95	-0.000992187	-0.00478446
6732.95	-0.000877742	-0.00494582
6743.95	-0.00103033	-0.00485667
6754.95	-0.00091589	-0.00480169
6765.95	-0.000934964	-0.00462566
6776.95	-0.000877742	-0.00469079
6787.95	-0.000858668	-0.00468443
6798.95	-0.000858668	-0.00477398
6809.95	-0.000973113	-0.00452954
6820.95	-0.000934964	-0.00467009
6831.95	-0.000839594	-0.00462961
6842.95	-0.000954038	-0.00460827
6853.95	-0.00101126	-0.00455629
6864.95	-0.000858668	-0.0044719
6875.95	-0.000839594	-0.00451689
6886.95	-0.00082052	-0.00447639
6897.95	-0.000954038	-0.00449825
6908.95	-0.00091589	-0.00422313
6919.95	-0.00082052	-0.0043892
6930.95	-0.000839594	-0.00430297
6941.95	-0.000782372	-0.00438602
6952.95	-0.00082052	-0.00402054
6963.95	-0.000934964	-0.00431113
6974.95	-0.000973113	-0.00415309
6985.95	-0.00091589	-0.00416902
6996.95	-0.000954038	-0.00396503
7007.95	-0.000801446	-0.00417465
7018.95	-0.000763297	-0.00408995
7029.95	-0.000801446	-0.00409921
7040.95	-0.000973113	-0.00387542
7051.95	-0.00091589	-0.00405626
7062.95	-0.000896816	-0.00395295
7073.95	-0.000801446	-0.00392927
7084.95	-0.00091589	-0.00373263
7095.95	-0.000992187	-0.00391413
7106.95	-0.000992187	-0.00385642
7117.95	-0.000801446	-0.0038898
7128.95	-0.000934964	-0.0036844
7139.95	-0.00091589	-0.00380706
7150.95	-0.000858668	-0.00388574
7161.95	-0.000896816	-0.00376991
7172.95	-0.000934964	-0.00362644
7183.95	-0.000839594	-0.0036805
7194.95	-0.000934964	-0.00374966
7205.95	-0.000858668	-0.00362087
7216.95	-0.00082052	-0.0036669
7227.95	-0.000992187	-0.00352364
7238.95	-0.000954038	-0.00365931
7249.95	-0.00091589	-0.00355482
7260.95	-0.00091589	-0.00345227
7271.95	-0.000896816	-0.0033727
7282.95	-0.000858668	-0.00352
7293.95	-0.000782372	-0.00335384
7304.95	-0.000858668	-0.00346745
7315.95	-0.00082052	-0.00325666
7326.95	-0.000877742	-0.00341925
7337.95	-0.000992187	-0.00330411
7348.95	-0.000896816	-0.00334464
7359.95	-0.000896816	-0.00314947
7370.95	-0.00082052	-0.00337831
7381.95	-0.000725149	-0.00330896
7392.95	-0.00082052	-0.00328721
7403.95	-0.00110663	-0.00302787
7414.95	-0.000896816	-0.00325955
7425.95	-0.000954038	-0.00314842
7436.95	-0.000973113	-0.0031362
7447.95	-0.00091589	-0.00293965
7458.95	-0.000858668	-0.00307748
7469.95	-0.000934964	-0.00306249
7480.95	-0.000896816	-0.0031026
7491.95	-0.00091589	-0.00276194
7502.95	-0.00106848	-0.00293657
7513.95	-0.000877742	-0.00288666
7524.95	-0.000782372	-0.00287022
7535.95	-0.000858668	-0.00270478
7546.95	-0.00082052	-0.00278394
7557.95	-0.000877742	-0.00279262
7568.95	-0.000858668	-0.00270501
7579.95	-0.00082052	-0.00276516
7590.95	-0.000934964	-0.0026225
7601.95	-0.000801446	-0.00254092
7612.95	-0.000954038	-0.00271122
7623.95	-0.000858668	-0.00272048
7634.95	-0.000782372	-0.00252294
7645.95	-0.000858668	-0.00258446
7656.95	-0.000858668	-0.00252184
7667.95	-0.000934964	-0.0026283
7678.95	-0.000782372	-0.00236146
7689.95	-0.000801446	-0.00243559
7700.95	-0.00101126	-0.0024622
7711.95	-0.000801446	-0.00248361
7722.95	-0.000858668	-0.00212886
7733.95	-0.000858668	-0.0023767
7744.95	-0.000801446	-0.0022386
7755.95	-0.000858668	-0.00237367
7766.95	-0.000877742	-0.00202957
7777.95	-0.000801446	-0.00222608
7788.95	-0.000858668	-0.00218765
7799.95	-0.000934964	-0.00218091
7810.95	-0.00082052	-0.00188073
7821.95	-0.000973113	-0.00214587
7832.95	-0.000954038	-0.00219379
7843.95	-0.000896816	-0.00211521
7854.95	-0.000954038	-0.00180192
7865.95	-0.000858668	-0.00201604
7876.95	-0.000973113	-0.0019606
7887.95	-0.000973113	-0.00205925
7898.95	-0.000858668	-0.00174258
7909.95	-0.000839594	-0.00190677
7920.95	-0.00101126	-0.00189467
7931.95	-0.00101126	-0.00185566
7942.95	-0.00101126	-0.00179237
7953.95	-0.000954038	-0.0016822
7964.95	-0.000934964	-0.00174479
7975.95	-0.000973113	-0.00169978
7986.95	-0.000877742	-0.00170369
7997.95	-0.000858668	-0.00158105
8008.95	-0.000973113	-0.0016356
8019.95	-0.000839594	-0.00160984
8030.95	-0.00103033	-0.00164953
8041.95	-0.000954038	-0.00143799
8052.95	-0.00091589	-0.00161591
8063.95	-0.000877742	-0.00157596
8074.95	-0.000954038	-0.00152638
8085.95	-0.00091589	-0.00134639
8096.95	-0.000801446	-0.00150099
8107.95	-0.00082052	-0.00142948
8118.95	-0.000973113	-0.001483
8129.95	-0.000992187	-0.00116371
8140.95	-0.00101126	-0.00140374
8151.95	-0.000954038	-0.00139765
8162.95	-0.000877742	-0.00139148
8173.95	-0.00108756	-0.00116857
8184.95	-0.000896816	-0.00133922
8195.95	-0.000839594	-0.00137884
8206.95	-0.000801446	-0.00135251
8217.95	-0.000725149	-0.00104581
8228.95	-0.00091589	-0.00125787
8239.95	-0.000896816	-0.00122681
8250.95	-0.000992187	-0.00126128
8261.95	-0.000896816	-0.00111507
8272.95	-0.00091589	-0.00112599
8283.95	-0.000992187	-0.00110726
8294.95	-0.000877742	-0.00112277
8305.95	-0.000858668	-0.00104302
8316.95	-0.000954038	-0.00100924
8327.95	-0.000877742	-0.000954105
8338.95	-0.000839594	-0.00102793
8349.95	-0.000801446	-0.00100576
8360.95	-0.00101126	-0.000809487
8371.95	-0.00101126	-0.00104969
8382.95	-0.000896816	-0.000939178
8393.95	-0.000934964	-0.00106749
8404.95	-0.000725149	-0.000785435
8415.95	-0.000934964	-0.000903489
8426.95	-0.000954038	-0.000806068
8437.95	-0.000896816	-0.000894066
8448.95	-0.000954038	-0.000622304
8459.95	-0.000801446	-0.000965849
8470.95	-0.000896816	-0.000896585
8481.95	-0.000934964	-0.000873239
8492.95	-0.000934964	-0.000723544
8503.95	-0.00082052	-0.0008392
8514.95	-0.000877742	-0.000738305
8525.95	-0.000992187	-0.000792396
8536.95	-0.00091589	-0.000525227
8547.95	-0.000877742	-0.000697118
8558.95	-0.000896816	-0.000680482
8569.95	-0.000877742	-0.000749983
8580.95	-0.000954038	-0.000428856
8591.95	-0.000839594	-0.000615673
8602.95	-0.000992187	-0.000594934
8613.95	-0.000896816	-0.000607095
8624.95	-0.000992187	-0.000556091
8635.95	-0.000896816	-0.000543099
8646.95	-0.000763297	-0.000585869
8657.95	-0.000954038	-0.000528704
8668.95	-0.000858668	-0.000526291
8679.95	-0.00101126	-0.000433862
8690.95	-0.000839594	-0.000485848
8701.95	-0.00091589	-0.000402439
8712.95	-0.000725149	-0.000394804
8723.95	-0.000934964	-0.000347649
8734.95	-0.000954038	-0.000402982
8745.95	-0.000782372	-0.000277398
8756.95	-0.000610705	-0.000395566
8767.95	-0.00091589	-3.3584e-05
8778.95	-0.000858668	-0.000284244
8789.95	-0.000858668	-0.000250878
8800.95	-0.000992187	-0.000209502
8811.95	-0.000973113	-2.64374e-05
8822.95	-0.000896816	-0.000268691
8833.95	-0.00091589	-0.000138612
8844.95	-0.000992187	-7.3392e-05
8855.95	-0.00082052	-5.57945e-06
8866.95	-0.000858668	-0.000160342
8877.95	-0.000992187	-9.36804e-05
8888.95	-0.000877742	-2.67165e-05
8899.95	-0.00091589	6.14239e-05
8910.95	-0.000992187	-1.33917e-05
8921.95	-0.000934964	1.49654e-05
8932.95	-0.000801446	7.95542e-05
8943.95	-0.000782372	0.000202834
8954.95	-0.000896816	1.44823e-05
8965.95	-0.000973113	0.000115597
8976.95	-0.000992187	0.000132875
8987.95	-0.00082052	0.000259671
8998.95	-0.00091589	0.000136193
9009.95	-0.000973113	0.00014087
9020.95	-0.00082052	0.000171147
9031.95	-0.000877742	0.000301784
9042.95	-0.000877742	0.00034159
9053.95	-0.00091589	0.000221867
9064.95	-0.00082052	0.000266218
9075.95	-0.00082052	0.0002566
9086.95	-0.000992187	0.000358302
9097.95	-0.000954038	0.000258612
9108.95	-0.000782372	0.000504923
9119.95	-0.00091589	0.000462873
9130.95	-0.000934964	0.000600178
9141.95	-0.00101126	0.00035959
9152.95	-0.00101126	0.000324007
9163.95	-0.000954038	0.000460856
9174.95	-0.000801446	0.000691131
9185.95	-0.00091589	0.000504822
9196.95	-0.000839594	0.000564331
9207.95	-0.000877742	0.000550163
9218.95	-0.000954038	0.000784394
9229.95	-0.000839594	0.000554678
9240.95	-0.00082052	0.000609428
9251.95	-0.000896816	0.000603056
9262.95	-0.000992187	0.000907275
9273.95	-0.000839594	0.000710143
9284.95	-0.00082052	0.000719156
9295.95	-0.000877742	0.000678918
9306.95	-0.000954038	0.000937429
9317.95	-0.000801446	0.000836996
9328.95	-0.00103033	0.000799383
9339.95	-0.000801446	0.000848788
9350.95	-0.00112571	0.000935103
9361.95	-0.000896816	0.000825756
9372.95	-0.000896816	0.000791782
9383.95	-0.000992187	0.000809419
9394.95	-0.000801446	0.000829997
9405.95	-0.000896816	0.000980276
9416.95	-0.000877742	0.000945611
9427.95	-0.000954038	0.00091973
9438.95	-0.00101126	0.000933871
9449.95	-0.000973113	0.00112317
9460.95	-0.00091589	0.000922005
9471.95	-0.00082052	0.000974598
9482.95	-0.000877742	0.000954851
9493.95	-0.000934964	0.00118102
9504.95	-0.00103033	0.000948766
9515.95	-0.000954038	0.00105474
9526.95	-0.000954038	0.000991325
9537.95	-0.000839594	0.00127552
9548.95	-0.000992187	0.00108212
9559.95	-0.000782372	0.00109772
9570.95	-0.000954038	0.00116928
9581.95	-0.000877742	0.00145272
9592.95	-0.000973113	0.00102475
9603.95	-0.000934964	0.00122679
9614.95	-0.00091589	0.00114926
9625.95	-0.000839594	0.00146388
9636.95	-0.000992187	0.00123367
9647.95	-0.000896816	0.00129958
9658.95	-0.000858668	0.00120493
9669.95	-0.00091589	0.00146866
9680.95	-0.000839594	0.00126456
9691.95	-0.000782372	0.00122163
9702.95	-0.000934964	0.00126886
9713.95	-0.000858668	0.00143237
9724.95	-0.00082052	0.00132186
9735.95	-0.000858668	0.0013151
9746.95	-0.000934964	0.00140816
9757.95	-0.000801446	0.00142307
9768.95	-0.00101126	0.00150641
9779.95	-0.00104941	0.00132724
9790.95	-0.000782372	0.00148093
9801.95	-0.000934964	0.00153676
9812.95	-0.000973113	0.00155938
9823.95	-0.00091589	0.00142518
9834.95	-0.000839594	0.00150581
9845.95	-0.00091589	0.00149337
9856.95	-0.000877742	0.00164465
9867.95	-0.000954038	0.00147962
9878.95	-0.000763297	0.00155847
9889.95	-0.000839594	0.00153493
9900.95	-0.000973113	0.00172614
9911.95	-0.000954038	0.00152292
9922.95	-0.000877742	0.00155489
9933.95	-0.000992187	0.00160475
9944.95	-0.000896816	0.00184747
9955.95	-0.000877742	0.00155442
9966.95	-0.000839594	0.00169553
9977.95	-0.00101126	0.0016402
9988.95	-0.00091589	0.00195411
9999.95	-0.00091589	0.00162028
10011	-0.000992187	0.00170146
10022	-0.000858668	0.00174825
10033	-0.000744223	0.00186633
10044	-0.000934964	0.00173159
10055	-0.000973113	0.00177283
10066	-0.000934964	0.00171203
10077	-0.000858668	0.00192283
10088	-0.000877742	0.00193395
10099	-0.000992187	0.00185127
10110	-0.000973113	0.00180313
10121	-0.000782372	0.00195026
10132	-0.000839594	0.00208536
10143	-0.000782372	0.00187499
10154	-0.00082052	0.00191121
10165	-0.000954038	0.0020071
10176	-0.000858668	0.00213194
10187	-0.000934964	0.00198823
10198	-0.000954038	0.00203457
10209	-0.000706075	0.00199379
10220	-0.000992187	0.00207778
10231	-0.000934964	0.00201275
10242	-0.000667927	0.00210137
10253	-0.00091589	0.00198782
10264	-0.000896816	0.00229132
10275	-0.000896816	0.00203598
10286	-0.000992187	0.00211101
10297	-0.000954038	0.00210367
10308	-0.000744223	0.00234459
10319	-0.000839594	0.00212372
10330	-0.000896816	0.00217068
10341	-0.000954038	0.00221183
10352	-0.00082052	0.00246137
10363	-0.000896816	0.00222324
10374	-0.000896816	0.00227871
10385	-0.000954038	0.00215771
10396	-0.000954038	0.00251373
10407	-0.00082052	0.00229443
10418	-0.00091589	0.00230678
10429	-0.000839594	0.00237122
10440	-0.000877742	0.00256662
10451	-0.000896816	0.00238419
10462	-0.000839594	0.00239482
10473	-0.000934964	0.00234583
10484	-0.000896816	0.00250099
10495	-0.000839594	0.00253741
10506	-0.000896816	0.00245968
10517	-0.000839594	0.00253376
10528	-0.000782372	0.00254258
10539	-0.000973113	0.00264634
10550	-0.000954038	0.00248969
10561	-0.00103033	0.00260236
10572	-0.00082052	0.002468
10583	-0.000877742	0.0027901
10594	-0.000877742	0.00248656
10605	-0.000954038	0.00265115
10616	-0.000934964	0.00257985
10627	-0.000934964	0.00289629
10638	-0.000858668	0.00251845
10649	-0.00103033	0.00263034
10660	-0.000896816	0.00269652
10671	-0.000763297	0.00288499
10682	-0.000877742	0.00271108
10693	-0.000973113	0.00269951
10704	-0.00101126	0.00269374
10715	-0.000992187	0.00295017
10726	-0.000954038	0.00268941
10737	-0.000954038	0.00277338
10748	-0.000858668	0.00269575
10759	-0.000973113	0.00294546
10770	-0.000934964	0.00274823
10781	-0.000801446	0.00274533
10792	-0.000763297	0.00275764
10803	-0.000934964	0.00295517
10814	-0.00082052	0.00288857
10825	-0.000934964	0.0029081
10836	-0.000934964	0.00278371
10847	-0.000839594	0.00304342
10858	-0.000858668	0.0030624
10869	-0.00101126	0.00294489
10880	-0.000973113	0.0028285
10891	-0.000801446	0.00292779
10902	-0.000973113	0.00305929
10913	-0.000954038	0.0029356
10924	-0.00103033	0.00295823
10935	-0.00091589	0.00294852
10946	-0.000725149	0.00308707
10957	-0.000801446	0.00290815
10968	-0.00101126	0.00310832
10979	-0.000992187	0.00303332
10990	-0.000877742	0.00322988
11001	-0.000782372	0.00298778
11012	-0.000858668	0.00300889
11023	-0.000973113	0.00308182
11034	-0.00091589	0.00347631
11045	-0.000954038	0.00298911
11056	-0.00104941	0.00307955
11067	-0.000934964	0.00308518
11078	-0.000801446	0.00337347
11089	-0.00091589	0.00311731
11100	-0.000877742	0.00312826
11111	-0.000992187	0.00312961
11122	-0.000896816	0.00334475
11133	-0.000934964	0.00316593
11144	-0.000801446	0.00319816
11155	-0.000782372	0.00317995
11166	-0.00091589	0.00338506
11177	-0.000877742	0.00324241
11188	-0.000782372	0.00322142
11199	-0.000954038	0.00321668
11210	-0.000896816	0.00334735
11221	-0.000858668	0.00331622
11232	-0.000877742	0.00327355
11243	-0.00082052	0.00340505
11254	-0.000858668	0.00338441
11265	-0.000877742	0.00350657
11276	-0.00082052	0.00328106
11287	-0.000858668	0.00334668
11298	-0.00082052	0.00330778
11309	-0.000782372	0.00360785
11320	-0.00091589	0.00344793
11331	-0.000954038	0.00340854
11342	-0.000839594	0.00332738
11353	-0.000858668	0.00354661
11364	-0.000934964	0.0033408
11375	-0.00106848	0.00338143
11386	-0.000782372	0.00338302
11397	-0.000782372	0.00377782
11408	-0.00104941	0.0034238
11419	-0.00103033	0.00352051
11430	-0.000877742	0.00345554
11441	-0.00101126	0.00367828
11452	-0.000858668	0.00354553
11463	-0.000954038	0.00350169
11474	-0.000801446	0.00346608
11485	-0.00091589	0.00375526
11496	-0.000877742	0.00358091
11507	-0.000801446	0.00357426
11518	-0.000839594	0.00356439
11529	-0.000877742	0.00373109
11540	-0.000954038	0.00371775
11551	-0.000744223	0.00351709
11562	-0.000896816	0.00357891
11573	-0.000858668	0.00373007
11584	-0.000839594	0.00371079
11595	-0.000992187	0.00364084
11606	-0.000992187	0.00364882
11617	-0.000877742	0.0037134
11628	-0.000992187	0.00385114
11639	-0.000858668	0.0037005
11650	-0.00082052	0.00371209
11661	-0.000992187	0.00381072
11672	-0.00101126	0.00387723
11683	-0.000801446	0.00372946
11694	-0.00082052	0.00375042
11705	-0.000782372	0.00368814
11716	-0.000858668	0.00394616
11727	-0.000877742	0.00368218
11738	-0.000896816	0.00382815
11749	-0.000763297	0.00374966
11760	-0.000973113	0.00402586
11771	-0.00091589	0.00374443
11782	-0.000954038	0.00385293
11793	-0.000954038	0.0037567
11804	-0.000877742	0.00404264
11815	-0.000954038	0.00391639
11826	-0.000877742	0.00384815
11837	-0.000877742	0.00385416
11848	-0.000973113	0.00405623
11859	-0.00101126	0.00388556
11870	-0.000896816	0.00394897
11881	-0.000687001	0.0039946
11892	-0.000954038	0.00402717
11903	-0.000954038	0.00401162
11914	-0.000782372	0.00396085
11925	-0.000877742	0.00389092
11936	-0.000858668	0.00409651
11947	-0.000839594	0.00406009
11958	-0.000934964	0.00390083
11969	-0.000877742	0.00407152
11980	-0.00091589	0.00401222
11991	-0.00082052	0.0042015
12002	-0.000992187	0.00398566
12013	-0.000934964	0.00410021
12024	-0.000858668	0.00401487
12035	-0.00091589	0.00434764
12046	-0.000954038	0.0040561
12057	-0.000992187	0.0041559
12068	-0.000992187	0.00402039
12079	-0.000744223	0.00442218
12090	-0.000973113	0.00411312
12101	-0.000973113	0.00411895
12112	-0.000992187	0.00410988
12123	-0.000934964	0.00451699
12134	-0.000896816	0.00422882
12145	-0.00091589	0.00430027
12156	-0.000896816	0.00416397
12167	-0.00091589	0.00452133
12178	-0.000858668	0.00427714
12189	-0.000954038	0.00420861
12200	-0.000877742	0.00423011
12211	-0.000839594	0.00451049
12222	-0.000973113	0.00434746
12233	-0.000858668	0.00430993
12244	-0.00106848	0.00430153
12255	-0.00082052	0.00445959
12266	-0.000896816	0.0044171
12277	-0.000858668	0.00437401
12288	-0.00101126	0.00440178
12299	-0.000934964	0.00449683
12310	-0.000954038	0.00441801
12321	-0.000973113	0.00440098
12332	-0.000858668	0.00438681
12343	-0.000763297	0.00440599
12354	-0.00082052	0.00450315
12365	-0.000954038	0.00435821
12376	-0.000973113	0.00434102
12387	-0.000954038	0.00433037
12398	-0.000839594	0.0045788
12409	-0.000896816	0.00444446
12420	-0.000954038	0.00443761
12431	-0.00101126	0.00443643
12442	-0.000954038	0.00465631
12453	-0.000839594	0.00445181
12464	-0.000763297	0.0045015
12475	-0.000973113	0.00435476
12486	-0.000954038	0.00469642
12497	-0.000839594	0.00444665
12508	-0.000839594	0.0045609
12519	-0.000992187	0.00447013
12530	-0.000954038	0.00471346
12541	-0.000954038	0.00456985
12552	-0.000877742	0.00453989
12563	-0.000858668	0.0045816
12574	-0.000687001	0.00471532
12585	-0.00082052	0.00461075
12596	-0.00091589	0.004525
12607	-2.00085	-69.4879
12618	-2.00099	-48.3194
12629	-2.00089	-35.7034
12640	-2.00084	-28.6527
12651	-2.00091	-23.8743
12662	-2.0008	-20.4556
12673	-2.00095	-17.8068
12684	-2.00087	-15.8644
12695	-2.00087	-14.3112
12706	-2.00087	-13.0642
12717	-2.00082	-12.0239
12728	-2.00085	-11.1671
12739	-2.00095	-10.4295
12750	-2.00076	-9.79587
12761	-2.00091	-9.21177
12772	-2.00089	-8.71174
12783	-2.00084	-8.28123
12794	-2.00091	-7.8937
12805	-2.00085	-7.53991
12816	-2.00085	-7.20504
12827	-2.00095	-6.93197
12838	-2.00089	-6.67464
12849	-2.00076	-6.43769
12860	-2.00082	-5.55666
12871	-2.00095	-5.4882
12882	-2.00093	-5.81957
12893	-2.00084	-5.62998
12904	-2.00074	-5.45476
12915	-2.00085	-5.00438
12926	-2.00087	-5.1977
12937	-2.00093	-5.07074
12948	-2.00085	-4.94289
12959	-2.00074	-4.82351
12970	-2.00084	-4.69377
12981	-2.00091	-4.61964
12992	-2.00082	-4.53708
13003	-2.00097	-4.45034
13014	-2.00082	-4.27085
13025	-2.00078	-4.16974
13036	-2.00085	-4.19101
13047	-2.00082	-4.13472
13058	-2.00085	-4.10839
13069	-2.00084	-4.04051
13080	-2.00087	-3.97868
13091	-2.00089	-3.92114
13102	-2.0008	-3.86701
13113	-2.00082	-3.81119
13124	-2.00078	-3.76531
13135	-2.00078	-3.72131
13146	-2.00087	-3.67305
13157	-2.00084	-3.61242
13168	-2.00105	-3.57164
13179	-2.00084	-3.53012
13190	-2.00084	-3.49031
13201	-2.00087	-3.45308
13212	-2.00093	-3.41836
13223	-2.00091	-3.37741
13234	-2.00082	-3.32755
13245	-2.00082	-3.31615
13256	-2.00082	-3.29524
13267	-2.00089	-3.26974
13278	-2.00093	-3.22922
13289	-2.00082	-3.19717
13300	-2.00082	-3.17186
13311	-2.00093	-3.14318
13322	-2.00078	-3.11661
13333	-2.00082	-3.07978
13344	-2.00095	-3.06736
13355	-2.00085	-3.0484
13366	-2.00082	-3.02776
13377	-2.00082	-3.0173
13388	-2.00078	-3.00994
13399	-2.00085	-2.98361
13410	-2.00082	-2.95066
13421	-2.00078	-2.94168
13432	-2.00089	-2.91199
13443	-2.00076	-2.8843
13454	-2.00089	-2.87611
13465	-2.00087	-2.86163
13476	-2.00082	-2.84747
13487	-2.00089	-2.83005
13498	-2.00085	-2.8118
13509	-0.000954038	11.8063
13520	-0.00101126	4.12179
13531	-0.000801446	2.39408
13542	-0.000954038	1.66927
13553	-0.000896816	1.28551
13564	-0.000934964	1.0471
13575	-0.000896816	0.886631
13586	-0.00091589	0.765437
13597	-0.00082052	0.679131
13608	-0.000858668	0.612137
13619	-0.000973113	0.560718
13630	-0.000877742	0.513894
13641	-0.000877742	0.476447
13652	-0.000896816	0.447002
13663	-0.000973113	0.423462
13674	-0.000801446	0.398949
13685	-0.000858668	0.380408
13696	-0.000839594	0.363726
13707	-0.000763297	0.350887
13718	-0.000744223	0.335665
13729	-0.00091589	0.324042
13740	-0.000934964	0.313661
13751	-0.00082052	0.30519
13762	-0.000839594	0.295051
13773	-0.000801446	0.286716
13784	-0.000954038	0.279685
13795	-0.000896816	0.273698
13806	-0.000877742	0.266446
13817	-0.00082052	0.260216
13828	-0.00106848	0.254712
13839	-0.000896816	0.250189
13850	-0.00091589	0.245169
13861	-0.000801446	0.239787
13872	-0.000992187	0.235848
13883	-0.000896816	0.232067
13894	-0.000896816	0.228596
13905	-0.000706075	0.223854
13916	-0.00101126	0.220446
13927	-0.000858668	0.21739
13938	-0.000877742	0.214662
13949	-0.00082052	0.210334
13960	-0.000934964	0.207932
13971	-0.000877742	0.205211
13982	-0.000934964	0.203314
13993	-0.000992187	0.199357
14004	-0.000782372	0.197191
14015	-0.000992187	0.194693
14026	-0.000877742	0.19313
14037	-0.000858668	0.189545
14048	-0.000954038	0.187861
14059	-0.00101126	0.185572
14070	-0.000877742	0.184284
14081	-0.000896816	0.181104
14092	-0.000934964	0.179297
14103	-0.000801446	0.177517
14114	-0.000954038	0.176291
14125	-0.000973113	0.173761
14136	-0.000801446	0.17198
14147	-0.000763297	0.170406
14158	-0.000801446	0.169258
14169	-0.00082052	0.167026
14180	-0.000877742	0.165142
14191	-0.000934964	0.163901
14202	-0.00104941	0.162524
14213	-0.000725149	0.161009
14224	-0.000992187	0.159129
14235	-0.00082052	0.157924
14246	-0.000896816	0.156895
14257	-0.00091589	0.155541
14268	-0.000973113	0.153537
14279	-0.000954038	0.15249
14290	-0.000858668	0.151301
14301	-0.000896816	0.150516
14312	-0.00082052	0.148318
14323	-0.000934964	0.147456
14334	-0.000744223	0.146431
14345	-0.000954038	0.145909
14356	-0.000896816	0.143884
14367	-0.000877742	0.142909
14378	-0.00091589	0.142053
14389	-0.000896816	0.141383
14400	-0.000877742	0.139564
14411	-0.00103033	0.138732
14422	-0.000896816	0.137687
14433	-0.000877742	0.137045
14444	-0.000782372	0.135514
14455	-0.00082052	0.134635
14466	-0.000973113	0.133733
14477	-0.000934964	0.133467
14488	-0.000954038	0.131872
14499	-0.000858668	0.131024
14510	-0.000782372	0.130305
14521	-0.000744223	0.129851
14532	-0.00082052	0.128485
14543	-0.000839594	0.127658
14554	-0.000896816	0.126881
14565	-0.000877742	0.126242
14576	-0.000877742	0.125354
14587	-0.000858668	0.124157
14598	-0.000954038	0.123671
14609	-0.000896816	0.123096
14620	-0.000725149	0.122364
14631	-0.000763297	0.121059
14642	-0.000877742	0.120653
14653	-0.000877742	0.11999
14664	-0.000896816	0.11963
14675	-0.000934964	0.118331
14686	-0.00082052	0.117886
14697	-0.000934964	0.117246
14708	-0.00082052	0.117228
14719	-0.00101126	0.11547
14730	-0.000934964	0.115133
14741	-0.000934964	0.114537
14752	-0.00103033	0.114427
14763	-0.000896816	0.113117
14774	-0.000801446	0.112516
14785	-0.000839594	0.11203
14796	-0.000934964	0.112014
14807	-0.000858668	0.110713
14818	-0.000896816	0.110198
14829	-0.000973113	0.109698
14840	-0.000763297	0.109466
14851	-0.000954038	0.108417
14862	-0.000858668	0.107883
14873	-0.00106848	0.10741
14884	-0.000763297	0.10723
14895	-0.000763297	0.106539
14906	-0.00101126	0.105829
14917	-0.00103033	0.105156
14928	-0.000877742	0.104949
14939	-0.000782372	0.104642
14950	-0.000858668	0.1038
14961	-0.000934964	0.103324
14972	-0.000782372	0.103095
14983	-0.000877742	0.102823
14994	-0.00082052	0.1017
15005	-0.000992187	0.101592
15016	-0.000839594	0.10116
15027	-0.000858668	0.100882
15038	-0.00101126	0.0998468
15049	-0.00082052	0.0997041
15060	-0.000954038	0.0994041
15071	-0.000896816	0.0993084
15082	-0.000763297	0.0980627
15093	-0.000934964	0.0979952
15104	-0.00082052	0.0976634
15115	-0.000877742	0.0975583
15126	-0.000858668	0.0966298
15137	-0.00082052	0.0963357
15148	-0.000934964	0.0959254
15159	-0.000954038	0.0961138
15170	-0.00103033	0.0950337
15181	-0.00082052	0.0949177
15192	-0.00091589	0.094418
15203	-0.000877742	0.0943427
15214	-0.000896816	0.0938293
15225	-0.000839594	0.0933401
15236	-0.000877742	0.0929939
15247	-0.000839594	0.0929248
15258	-0.00091589	0.0923474
15269	-0.000973113	0.0918805
15280	-0.000954038	0.091547
15291	-0.000896816	0.0913983
15302	-0.000877742	0.0911294
15313	-0.000934964	0.0904086
15324	-0.000973113	0.0903043
15335	-0.000954038	0.0899289
15346	-0.000839594	0.0898833
15357	-0.00101126	0.0891065
15368	-0.000934964	0.0889942
15379	-0.000858668	0.0886812
15390	-0.00082052	0.0886043
15401	-0.000858668	0.0877304
15412	-0.00091589	0.0875418
15423	-0.000954038	0.0873852
15434	-0.00103033	0.0874833
15445	-0.000934964	0.086564
15456	-0.00091589	0.0864791
15467	-0.000896816	0.0861528
15478	-0.000744223	0.0863461
15489	-0.00082052	0.0854991
15500	-0.000877742	0.0852508
15511	-0.000973113	0.0849748
15522	-0.000896816	0.0851133
15533	-0.000763297	0.0843491
15544	-0.000934964	0.0841227
15555	-0.000877742	0.0839958
15566	-0.000801446	0.0839819
15577	-0.00101126	0.0833731
15588	-0.000877742	0.0829795
15599	-0.000877742	0.0828346
15610	-0.000877742	0.0828568
15621	-0.00091589	0.0822016
15632	-0.000877742	0.0821012
15643	-0.000954038	0.082007
15654	-0.000877742	0.0818624
15665	-0.000858668	0.0816134
15676	-0.000877742	0.0810814
15687	-0.000954038	0.0810865
15698	-0.000954038	0.0807353
15709	-0.000839594	0.0808369
15720	-0.000992187	0.0802355
15731	-0.00091589	0.0801208
15742	-0.000839594	0.0800377
15753	-0.000934964	0.0798923
15764	-0.000782372	0.0792762
15775	-0.000801446	0.0790989
15786	-0.000839594	0.0788237
15797	-0.00082052	0.0790204
15808	-0.000934964	0.0783831
15819	-0.00101126	0.078357
15830	-0.000877742	0.0781566
15841	-0.00091589	0.0783757
15852	-0.000839594	0.0775504
15863	-0.00091589	0.077433
15874	-0.000858668	0.0772901
15885	-0.000763297	0.0776232
15896	-0.000934964	0.0768804
15907	-0.000763297	0.0768068
15918	-0.00082052	0.0765566
15929	-0.000973113	0.0765915
15940	-0.000858668	0.076086
15951	-0.00082052	0.0758635
15962	-0.00082052	0.075791
15973	-0.000934964	0.0758206
15984	-0.000744223	0.075465
15995	-0.000934964	0.0751408
16006	-0.00104941	0.0750007
16017	-0.00091589	0.0749321
16028	-0.000877742	0.0748803
16039	-0.000744223	0.0743389
16050	-0.000877742	0.0742346
16061	-0.000877742	0.0740963
16072	-0.00091589	0.0741479
16083	-0.000782372	0.0736243
16094	-0.00091589	0.0736115
16105	-0.000858668	0.0733556
16116	-0.000954038	0.0735425
16127	-0.000839594	0.0729645
16138	-0.000896816	0.073071
16149	-0.00091589	0.0727618
16160	-0.000896816	0.0730218
16171	-0.000706075	0.0722508
16182	-0.000934964	0.0723944
16193	-0.000973113	0.0722253
16200	-0.000934964	0.0719909