File: Data_16_Experiment/CA_001_C01.txt
time/s	Ewe/V	<I>/mA
1	1.49911	156.216
40	1.49903	6.43796
79	1.49907	4.17162
118	1.49905	3.3681
157	1.49928	2.94655
196	1.49934	2.67283
235	1.49896	2.49464
274	1.49957	2.35937
313	1.49913	2.25345
352	1.49917	2.1623
391	1.49907	2.09369
430	1.49939	2.03982
469	1.49926	1.98726
508	1.4993	1.9395
547	1.49911	1.88881
586	1.49915	1.86252
625	1.49958	1.83097
664	1.49928	1.80205
703	1.49932	1.75946
742	1.49924	1.74647
781	1.49907	1.72766
820	1.49936	1.70912
859	1.4992	1.67618
898	1.49947	1.65983
937	1.49903	1.65212
976	1.49953	1.63629
1015	1.49953	1.61557
1054	1.4993	1.58747
1093	1.49934	1.5904
1132	1.49903	1.57847
1171	1.49913	1.56569
1210	1.49907	1.5318
1249	1.49905	1.53782
1288	1.49937	1.53248
1327	1.49917	1.52465
1366	1.4992	1.49341
1405	1.49932	1.48614
1444	1.49945	1.49113
1483	1.49926	1.48443
1522	1.49918	1.46759
1561	1.49949	1.44157
1600	1.4993	1.45224
1639	1.49922	1.44593
1678	1.49915	1.44148
1717	1.49958	1.40407
1756	1.49932	1.42015
1795	1.4993	1.41938
1833.95	-0.000765109	-0.569252
1872.98	-0.000669739	-0.0103769
1911.98	-0.000898628	0.0913419
1950.98	-0.000688813	0.100681
1989.98	-0.00101307	0.0863209
2028.98	-0.0014327	0.0731068
2067.98	-0.000803258	0.0614296
2106.98	-0.000517146	0.0508471
2145.98	-0.000517146	0.0441155
2184.98	-0.000765109	0.0388361
2223.98	-0.000498072	0.0368475
2262.98	-0.000803258	0.0330844
2301.98	-0.00112752	0.0299313
2340.98	-0.00053622	0.0281977
2379.98	-0.000822332	0.0283168
2418.98	-0.000993999	0.0264868
2457.98	-0.00108937	0.0243149
2496.98	-0.000917702	0.0234741
2535.98	-0.000726961	0.0234588
2574.98	-0.000936776	0.0236781
2613.98	-0.000631591	0.0219535
2652.98	-0.000822332	0.0210068
2691.98	-0.000879554	0.020726
2730.98	-0.00112752	0.0216404
2769.98	-0.000822332	0.0202272
2808.98	-0.00101307	0.01914
2847.98	-0.000936776	0.018491
2886.98	-0.00129918	0.0193405
2925.98	-0.000612517	0.0195097
2964.98	-0.000879554	0.019325
3003.98	-0.00108937	0.0181986
3042.98	-0.00107029	0.0184958
3081.98	-0.000688813	0.0187767
3120.98	-0.000746035	0.0180781
3159.98	-0.00095585	0.0176749
3198.98	-0.000974924	0.0172009
3237.98	-0.00124196	0.0181116
3276.98	-0.000707887	0.0173677
3315.98	-0.000841406	0.0170039
3354.98	-0.000803258	0.016198
3393.98	-0.00095585	0.0169048
3432.98	-0.000650665	0.0168793
3471.98	-0.000784183	0.0159668
3510.98	-0.000650665	0.0147622
3549.98	-0.000498072	0.0170984
3588.98	-0.000917702	0.0170206
3627.98	-0.00120381	0.0156485
3666.98	-0.000917702	0.0148587
3705.98	-0.000517146	0.014464
3744.98	-0.000650665	0.0160645
3783.98	-0.00131826	0.0159251
3822.98	-0.00107029	0.015503
3861.98	-0.00095585	0.0153155
3900.98	-0.000803258	0.0156035
3939.98	-0.00095585	0.0149392
3978.98	-0.000726961	0.0144125
4017.98	-0.000574368	0.014487
4056.98	-0.000822332	0.0152209
4095.98	-0.000936776	0.0151182
4134.98	-0.000879554	0.0148184
4173.98	-0.000993999	0.0141009
4212.98	-0.000555294	0.0134993
4251.98	-0.00118474	0.0148304
4290.98	-0.000555294	0.0146009
4329.98	-0.000936776	0.0140337
4368.98	-0.000574368	0.0136851
4407.98	-0.000669739	0.0140488
4446.98	-0.000822332	0.014279
4485.98	-0.00112752	0.0136092
4524.98	-0.000898628	0.0128725
4563.98	-0.00095585	0.0128063
4602.98	-0.000726961	0.0129761
4641.98	-0.000993999	0.0133671
4680.98	-0.00105122	0.0139469
4719.98	-0.000936776	0.014137
4758.98	-0.000822332	0.0144446
4797.98	-0.000765109	0.013726
4836.98	-0.000784183	0.0127857
4875.98	-0.000707887	0.0119964
4914.98	-0.000974924	0.0121792
4953.98	-0.000803258	0.012454
4992.98	-0.000726961	0.012931
5031.98	-0.000784183	0.0138879
5070.98	-0.000726961	0.0141114
5109.98	-0.000765109	0.0131984
5148.98	-0.00101307	0.0125027
5187.98	-0.000593442	0.0133191
5226.98	-0.000765109	0.0125354
5265.98	-0.00126104	0.0127935
5304.98	-0.00086048	0.0122729
5343.98	-0.000746035	0.0118652
5382.98	-0.000688813	0.0118434
5421.98	-0.00103215	0.0135084
5460.98	-0.00095585	0.0136236
5499.98	-0.00107029	0.0134365
5538.98	-0.000936776	0.0134287
5577.98	-0.000726961	0.0127285
5616.98	-0.00118474	0.0120609
5655.98	-0.000707887	0.0110095
5694.98	-0.00103215	0.0106749
5733.98	-0.000517146	0.0118473
5772.98	-0.000898628	0.0131363
5811.98	-0.000746035	0.011997
5850.98	-0.000784183	0.011377
5889.98	-0.00112752	0.0118874
5928.98	-0.000765109	0.0127089
5967.98	-0.00095585	0.0121151
6006.98	-0.000784183	0.0114577
6045.98	-0.00103215	0.0112939
6084.98	-0.000555294	0.011579
6123.98	-0.00110844	0.0118616
6162.98	-0.00086048	0.0113495
6201.98	-0.000974924	0.0108425
6240.98	-0.000631591	0.0105609
6279.98	-0.00103215	0.0109724
6318.98	-0.00103215	0.0120911
6357.98	-0.000822332	0.0113376
6396.98	-0.00095585	0.0109209
6435.98	-0.000974924	0.010899
6474.98	-0.000498072	0.0114785
6513.98	-0.000879554	0.0115717
6552.98	-0.00095585	0.0110723
6591.98	-0.00086048	0.0107992
6630.98	-0.000898628	0.0111723
6669.98	-0.000612517	0.0110145
6708.98	-0.00101307	0.0111615
6747.98	-0.00095585	0.0112363
6786.98	-0.000993999	0.0111819
6825.98	-0.000631591	0.0114232
6864.98	-0.00108937	0.0108737
6903.98	-0.000936776	0.0107428
6942.98	-0.000746035	0.011144
6981.98	-0.000707887	0.0108645
7020.98	-0.000803258	0.010611
7059.98	-0.000726961	0.0106861
7098.98	-0.00095585	0.0107369
7137.98	-0.00095585	0.0107858
7176.98	-0.00114659	0.0104012
7215.98	-0.000650665	0.0102458
7254.98	-0.00105122	0.0104263
7293.98	-0.00086048	0.0108968
7332.98	-0.000555294	0.0108459
7371.98	-0.000974924	0.0111076
7410.98	-0.00086048	0.0108473
7449.98	-0.00103215	0.0106988
7488.98	-0.00086048	0.0107798
7527.98	-0.000841406	0.0101309
7566.98	-0.00114659	0.0101437
7605.98	-0.000555294	0.0104683
7644.98	-0.00120381	0.0108677
7683.98	-0.000593442	0.0109187
7722.98	-0.000803258	0.010445
7761.98	-0.000993999	0.0104843
7800.98	-0.000879554	0.0107475
7839.98	-0.000784183	0.0106477
7878.98	-0.000841406	0.0104931
7917.98	-0.000879554	0.0105026
7956.98	-0.000841406	0.0109461
7995.98	-0.000917702	0.0100953
8034.98	-0.00124196	0.00971467
8073.98	-0.000993999	0.00967011
8112.98	-2.14526e-06	0.00943788
8151.98	-0.000803258	0.0106387
8190.98	-0.000555294	0.00981428
8229.98	-0.00053622	0.0100667
8268.98	-0.000822332	0.010433
8307.98	-0.00095585	0.00990537
8346.98	-0.00116567	0.0103239
8385.98	-0.000936776	0.00995545
8424.98	-0.00101307	0.00957926
8463.98	-0.00105122	0.0100658
8502.98	-0.000707887	0.0098216
8541.98	-0.00086048	0.00994581
8580.98	-0.000726961	0.00986393
8619.98	-0.000974924	0.00996737
8658.98	-0.000936776	0.0100595
8697.98	-0.000650665	0.00973576
8736.98	-0.000555294	0.00990785
8775.98	-0.00108937	0.00965192
8814.98	-0.00101307	0.00986186
8853.98	-0.000478998	0.00973579
8892.98	-0.000688813	0.0095953
8931.98	-0.000707887	0.00965326
8970.98	-0.000974924	0.00997521
9009.98	-0.00112752	0.00989055
9048.98	-0.00107029	0.00967012
9087.98	-0.00101307	0.00963104
9126.98	-0.000993999	0.00988187
9165.98	-0.000822332	0.00995361
9204.98	-0.000879554	0.0098077
9243.98	-0.000765109	0.010019
9282.98	-0.000917702	0.00981853
9321.98	-0.000803258	0.00970902
9360.98	-0.000669739	0.00945597
9399.98	-0.000936776	0.00909617
9438.98	-0.000993999	0.00916847
9477.98	-0.00118474	0.00944122
9516.98	-0.000917702	0.00970194
9555.98	-0.00114659	0.00952822
9594.98	-0.00112752	0.00923688
9633.98	-0.00086048	0.00948136
9672.98	-0.000765109	0.00925123
9711.98	-0.000879554	0.00916008
9750.98	-0.000974924	0.0092736
9789.98	-0.000765109	0.00916544
9828.98	-0.000898628	0.00928463
9867.98	-0.000974924	0.00909889
9906.98	-0.00101307	0.00941135
9945.98	-0.0015853	0.00932484
9984.98	-0.000421776	0.00944537
10024	-0.00101307	0.00955793
10063	-0.000841406	0.00923625
10102	-0.000822332	0.00914387
10141	-0.000746035	0.00945505
10180	-0.000803258	0.00933459
10219	-0.000822332	0.00910012
10258	-0.000841406	0.00925491
10297	-0.000746035	0.00981401
10336	-0.000993999	0.00908133
10375	-0.000669739	0.00868386
10414	-0.000898628	0.00847053
10453	-0.00086048	0.00867835
10492	-0.00105122	0.00909782
10531	-0.000993999	0.00907529
10570	-0.00110844	0.0089653
10609	-0.000898628	0.00890505
10648	-0.00086048	0.00896439
10687	-0.00108937	0.00896913
10726	-0.000555294	0.00896531
10765	-0.00105122	0.00923307
10804	-0.000688813	0.00911687
10843	-0.00095585	0.00950747
10882	-0.000822332	0.00918084
10921	-0.000765109	0.00913113
10960	-0.00108937	0.00912018
10999	-0.000765109	0.0090633
11038	-0.000936776	0.00900736
11077	-0.000936776	0.00904696
11116	-0.000936776	0.00879193
11155	-0.00122289	0.00888232
11194	-0.00101307	0.0091039
11233	-0.000726961	0.00896948
11272	-0.000765109	0.008787
11311	-0.00095585	0.00887611
11350	-0.000917702	0.00891544
11389	-0.00101307	0.00876734
11428	-0.000593442	0.00882759
11467	-0.000936776	0.00866571
11506	-0.000784183	0.00890819
11545	-0.000879554	0.0086182
11584	-0.000917702	0.00881211
11623	-0.00095585	0.00898184
11662	-0.000993999	0.00865164
11701	-0.000650665	0.00837449
11740	-0.000974924	0.00862242
11779	-0.00053622	0.00817513
11818	-0.000917702	0.00821998
11857	-0.000478998	0.00819037
11896	-0.000898628	0.0081766
11935	-0.000498072	0.00817558
11974	-0.000917702	0.00834299
12013	-0.000936776	0.00857891
12052	-0.000841406	0.008378
12091	-0.00105122	0.00817751
12130	-0.00152807	0.00805683
12169	-0.000898628	0.00803608
12208	-0.000612517	0.00816077
12247	-0.000803258	0.00824224
12286	-0.000746035	0.00835582
12325	-0.000631591	0.00858177
12364	-0.000879554	0.00837327
12403	-0.00105122	0.00831449
12442	-0.000650665	0.00847485
12481	-0.000917702	0.00846643
12520	-0.000879554	0.00837261
12559	-0.000707887	0.00838153
12598	-0.00105122	0.00844209
12637	-0.000898628	0.0083824
12676	-0.00108937	0.00830435
12715	-0.000917702	0.00815886
12754	-0.000593442	0.00825196
12793	-0.00086048	0.00809335
12832	-0.000879554	0.00827408
12871	-0.00116567	0.00846905
12910	-0.00112752	0.00839943
12949	-0.000879554	0.00855444
12988	-0.000803258	0.00835251
13027	-0.000898628	0.00827445
13066	-0.000822332	0.00799781
13105	-0.000841406	0.0081184
13144	-0.00120381	0.00821308
13183	-0.000459924	0.00828252
13222	-0.000726961	0.00809757
13261	-0.000612517	0.00780944
13300	-0.00086048	0.00791776
13339	-0.00095585	0.00801165
13378	-0.000765109	0.00825363
13417	-0.000746035	0.0080779
13456	-0.000669739	0.0078892
13495	-0.00101307	0.00794673
13534	-0.000879554	0.00806677
13573	-0.00095585	0.00785192
13612	-0.000726961	0.00789268
13651	-0.00120381	0.00800604
13690	-0.00137548	0.00799879
13729	-0.000707887	0.00815839
13768	-0.00107029	0.00811468
13807	-0.000993999	0.00793365
13846	-0.000841406	0.00812912
13885	-0.000688813	0.00805972
13924	-0.000612517	0.00798769
13963	-0.00101307	0.00802007
14002	-0.000879554	0.00806117
14041	-0.000993999	0.00805434
14080	-0.000993999	0.00787705
14119	-0.000898628	0.00791814
14158	-0.000936776	0.00771237
14197	-0.000822332	0.00796885
14236	-0.000917702	0.00782815
14275	-0.00108937	0.00787003
14314	-0.000574368	0.00768192
14353	-0.000917702	0.00776823
14392	-0.000898628	0.0078699
14431	1.49897	4.55742
14470	1.49899	2.95044
14509	1.49894	2.35131
14548	1.49937	2.07768
14587	1.4993	1.94154
14626	1.49909	1.84493
14665	1.49953	1.77633
14704	1.49958	1.70362
14743	1.49936	1.68591
14782	1.4993	1.66107
14821	1.49905	1.63933
14860	1.49937	1.58804
14899	1.49941	1.58618
14938	1.4997	1.58531
14977	1.49943	1.57191
15016	1.49934	1.53882
15055	1.4992	1.50889
15094	1.4993	1.52814
15133	1.49922	1.52137
15172	1.49957	1.50722
15211	1.49947	1.45872
15250	1.49901	1.48765
15289	1.49905	1.48923
15328	1.49922	1.4866
15367	1.49958	1.43239
15406	1.4993	1.44982
15445	1.49915	1.46824
15484	1.49917	1.46547
15523	1.4992	1.43353
15562	1.49955	1.41035
15601	1.4993	1.44084
15640	1.49949	1.43495
15679	1.49937	1.42953
15718	1.49913	1.3801
15757	1.49932	1.41264
15796	1.49934	1.42176
15835	1.49928	1.42153
15874	1.49915	1.36687
15913	1.49911	1.38345
15952	1.49932	1.4055
15991	1.49926	1.40943
16030	1.49957	1.37688
16069	1.4992	1.35678
16108	1.49966	1.39718
16147	1.49924	1.39511
16186	1.49947	1.3886
16225	-0.000746035	-0.780406
16264	-0.000803258	-0.0901921
16303	-0.000726961	-0.00450104
16342	-0.000707887	0.0116751
16381	-0.000841406	0.0168897
16420	-0.000478998	0.0170961
16459	-0.000879554	0.0172345
16498	-0.00118474	0.0170748
16537	-0.000993999	0.0175955
16576	-0.00105122	0.0167845
16615	-0.000784183	0.0163914
16654	-0.000574368	0.0163193
16693	-0.000822332	0.0164212
16732	-0.000974924	0.0162504
16771	-0.000898628	0.015835
16810	-0.00107029	0.0157888
16849	-0.00103215	0.0156452
16888	-0.00105122	0.0158667
16927	-0.000898628	0.0155057
16966	-0.000784183	0.0152136
17005	-0.000707887	0.0151287
17044	-0.00086048	0.0152791
17083	-0.000765109	0.0150315
17122	-0.000688813	0.0148481
17161	-0.000917702	0.0146821
17200	-0.000841406	0.0148375
17239	-0.000707887	0.0148731
17278	-0.000746035	0.0143459
17317	-0.000822332	0.0142139
17356	-0.000707887	0.0140197
17395	-0.00086048	0.014359
17434	-0.000707887	0.013846
17473	-0.000517146	0.0137267
17512	-0.000822332	0.0134791
17551	-0.000688813	0.0137381
17590	-0.000726961	0.0134809
17629	-0.000974924	0.0135142
17668	-0.00116567	0.0133677
17707	-0.000784183	0.013444
17746	-0.000478998	0.0133008
17785	-0.000841406	0.0131207
17824	-0.000746035	0.0129741
17863	-0.00116567	0.0130084
17902	-0.000917702	0.0130464
17941	-0.000726961	0.0125947
17980	-0.00095585	0.0125544
18019	-0.000879554	0.012514
18058	-0.000650665	0.0126555
18097	-0.00108937	0.0124263
18136	-0.000669739	0.0123109
18175	-0.00128011	0.0122753
18214	-0.000841406	0.012142
18253	-0.00116567	0.011965
18292	-0.000726961	0.0119169
18331	-0.000822332	0.0119288
18370	-0.00124196	0.0119644
18409	-0.00120381	0.0121661
18448	-0.00086048	0.0120245
18487	-0.000726961	0.011831
18526	-0.000421776	0.0117393
18565	-0.00120381	0.0118218
18604	-0.000898628	0.0115507
18643	-0.00129918	0.0116894
18682	-0.000898628	0.0114515
18721	-0.000726961	0.0115174
18760	-0.000879554	0.0112334
18799	-0.000784183	0.0111997
18838	-0.000917702	0.0110784
18877	-0.00128011	0.0112386
18916	-0.00086048	0.0112985
18955	-0.000746035	0.0112198
18994	-0.00124196	0.0111208
19033	-0.000459924	0.011063
19072	-0.00086048	0.0111295
19111	-0.00103215	0.0109509
19150	-0.000669739	0.0106961
19189	-0.00053622	0.0108273
19228	-0.000841406	0.0109559
19267	-0.000917702	0.0109253
19306	-0.00118474	0.0106375
19345	-0.000841406	0.0105622
19384	-0.00107029	0.0105889
19423	-0.000879554	0.010607
19462	-0.00110844	0.0105842
19501	-0.000612517	0.0104142
19540	-0.000936776	0.0104532
19579	-0.000974924	0.0105968
19618	-0.00105122	0.0104495
19657	-0.000879554	0.0104301
19696	-0.000993999	0.010335
19735	-0.00108937	0.0104561
19774	-0.000917702	0.01044
19813	-0.00103215	0.0102407
19852	-0.000917702	0.0102639
19891	-0.00124196	0.0101901
19930	-0.000974924	0.0101654
19969	-0.000917702	0.00998352
20008	-0.000574368	0.0098835
20047	-0.000803258	0.00979552
20086	-0.00105122	0.00987449
20125	-0.00110844	0.00975098
20164	-0.000707887	0.00970091
20203	-0.00103215	0.00983343
20242	-0.00101307	0.00984562
20281	-0.00116567	0.00990778
20320	-0.000974924	0.00985386
20359	-0.000707887	0.00974484
20398	-0.00114659	0.00961319
20437	-0.00095585	0.00951431
20476	-0.00122289	0.00943061
20515	-0.00107029	0.00943708
20554	-0.00101307	0.00948163
20593	-0.000517146	0.00960483
20632	-0.000459924	0.00938438
20671	-0.000803258	0.00941358
20710	-0.000993999	0.00942257
20749	-0.000726961	0.00960056
20788	-0.00107029	0.00932154
20827	-0.000803258	0.00934465
20866	-0.000803258	0.00927058
20905	-0.00105122	0.00944697
20944	-0.00118474	0.0093293
20983	-0.00108937	0.0092289
21022	-0.000746035	0.00919327
21061	-0.000841406	0.00925135
21100	-0.000841406	0.00923546
21139	-0.00101307	0.00916214
21178	-0.000517146	0.00902921
21217	-0.000822332	0.0089011
21256	-0.000822332	0.0090411
21295	-0.00107029	0.00890753
21334	-0.000917702	0.00899996
21373	-0.000326405	0.00896731
21412	-0.000746035	0.00896569
21451	-0.000669739	0.00889153
21490	-0.000841406	0.00885576
21529	-0.000650665	0.00877014
21568	-0.000879554	0.00883303
21607	-0.00103215	0.00880393
21646	-0.000898628	0.00874067
21685	-0.000841406	0.00869704
21724	-0.00095585	0.00883368
21763	-0.000612517	0.00884464
21802	-0.000498072	0.00871862
21841	-0.00095585	0.00868937
21880	-0.000936776	0.00863153
21919	-0.001509	0.00867975
21958	-0.000803258	0.00857185
21997	-0.000784183	0.00839874
22036	-0.000765109	0.00838153
22075	-0.00105122	0.00834063
22114	-0.000784183	0.00841087
22153	-0.000612517	0.00832921
22192	-0.000917702	0.00837252
22231	-0.00044085	0.00840678
22270	-0.000879554	0.00843969
22309	-0.000593442	0.00837078
22348	-0.000555294	0.00830552
22387	-0.000803258	0.00833179
22426	-0.000803258	0.00836828
22465	-0.000631591	0.00844
22504	-0.000974924	0.00830249
22543	-0.000746035	0.00835178
22582	-0.000822332	0.00831465
22621	-0.000917702	0.00836137
22660	-0.000822332	0.00822788
22699	-0.000650665	0.00816672
22738	-0.000707887	0.00813073
22777	-0.000650665	0.00817736
22816	-0.00086048	0.0081229
22855	-0.000803258	0.00812049
22894	-0.00086048	0.00807268
22933	-0.00095585	0.00814807
22972	-0.000936776	0.00809884
23011	-0.000669739	0.00804342
23050	-0.00135641	0.00811595
23089	-0.000478998	0.00805278
23128	-0.000688813	0.00812719
23167	-0.000898628	0.0079089
23206	-0.00103215	0.00796506
23245	-0.00053622	0.00788989
23284	-0.00053622	0.00791908
23323	-0.000669739	0.00790224
23362	-0.00107029	0.00786523
23401	-0.00086048	0.00800808
23440	-0.000765109	0.00793788
23479	-0.000555294	0.00798149
23518	-0.000746035	0.00790113
23557	-0.000631591	0.00776547
23596	-0.000669739	0.00784645
23635	-0.000784183	0.00787923
23674	-0.000879554	0.00769345
23713	-0.000803258	0.00781116
23752	-0.000917702	0.00771203
23791	-0.000898628	0.00769447
23830	-0.000917702	0.00770942
23869	-0.00122289	0.00766601
23908	-0.00105122	0.00757504
23947	-0.000898628	0.00768829
23986	-0.000936776	0.00759635
24025	-0.000765109	0.00760578
24064	-0.00128011	0.00746087
24103	-0.000993999	0.00754177
24142	-0.000917702	0.00771803
24181	-0.00105122	0.00751494
24220	-0.000726961	0.00752335
24259	-0.000269183	0.00745005
24298	-0.000574368	0.00767818
24337	-0.00095585	0.00739223
24376	-0.000936776	0.007451
24415	-0.000746035	0.00745466
24454	-0.000879554	0.00741531
24493	-0.00112752	0.00747987
24532	-0.000707887	0.0074632
24571	-0.000936776	0.007433
24610	-0.000650665	0.00743233
24649	-0.000841406	0.00746888
24688	-0.000803258	0.00743935
24727	-0.000974924	0.00742965
24766	-0.000459924	0.0073542
24805	-0.000746035	0.00740342
24844	-0.00086048	0.00731203
24883	-0.00101307	0.0072534
24922	-0.000784183	0.0073216
24961	-0.00118474	0.0073455
25000	-0.000746035	0.00732238
25039	-0.000898628	0.00725383
25078	-0.000917702	0.00727122
25117	-0.00107029	0.00740519
25156	-0.000402701	0.00726809
25195	-0.000841406	0.0072904
25234	-0.00086048	0.00722827
25273	-0.000879554	0.00720626
25312	-0.000822332	0.00729743
25351	-0.00095585	0.00721636
25390	-0.000593442	0.00728774
25429	-0.000841406	0.00714189
25468	-0.00129918	0.00709707
25507	-0.00086048	0.00706711
25546	-0.000879554	0.00705652
25585	-0.000765109	0.00713039
25624	-0.000765109	0.0070098
25663	-0.000688813	0.0071146
25702	-0.000993999	0.00714753
25741	-0.000707887	0.0070321
25780	-0.00095585	0.00704513
25819	-0.000784183	0.00700818
25858	-0.000707887	0.00694807
25897	-0.00053622	0.00695334
25936	-0.000383627	0.00678964
25975	-0.000822332	0.00694095
26014	-0.000917702	0.00696614
26053	-0.00053622	0.00700416
26092	-0.000402701	0.00691807
26131	-0.00126104	0.00708102
26170	-0.000936776	0.00693122
26209	-0.000555294	0.00694815
26248	-0.00086048	0.0069003
26287	-0.000936776	0.00681186
26326	-0.00108937	0.00681841
26365	-0.000765109	0.00680598
26404	-0.00105122	0.00684811
26443	-0.000765109	0.00681558
26482	-0.000898628	0.00680764
26521	-0.00101307	0.00688126
26560	-0.000746035	0.00682681
26599	-0.000364553	0.00685978
26638	-0.000784183	0.00681262
26677	-0.000746035	0.00686064
26716	-0.000803258	0.00679639
26755	-0.000822332	0.00664067
26794	-0.00107029	0.00654154
26833	-0.000746035	0.00683346
26872	-0.00118474	0.00666622
26911	-0.00086048	0.00668813
26950	-0.000822332	0.00671708
26989	-0.00095585	0.00674033
27028	-0.000917702	0.00675539
27067	-0.000822332	0.00657559
27106	-0.000688813	0.00671386
27145	-0.000688813	0.00661894
27184	-0.00116567	0.00675351
27223	-0.00086048	0.0067483
27262	-0.000917702	0.00664177
27301	-0.000974924	0.00656558
27340	-0.000822332	0.0066053
27379	-0.000517146	0.00669026
27418	-0.000841406	0.00657394
27457	-0.000936776	0.00653299
27496	-0.000803258	0.00659113
27535	-0.00126104	0.00661629
27574	-0.000879554	0.00657257
27613	-0.000669739	0.00659802
27652	-0.000898628	0.00662509
27691	-0.00086048	0.00658278
27730	-0.000669739	0.00654267
27769	-0.000841406	0.00644657
27808	-0.000784183	0.0064371
27847	-0.000726961	0.00657454
27886	-0.000459924	0.0065047
27925	-0.000974924	0.00636548
27964	-0.000917702	0.00645061
28003	-0.000974924	0.00645893
28042	-0.00120381	0.00648661
28081	-0.000898628	0.00641953
28120	-0.000974924	0.00630547
28159	-0.00086048	0.0065303
28198	-0.000841406	0.00646589
28237	-0.000746035	0.00641053
28276	-0.000879554	0.00633492
28315	-0.00120381	0.00640841
28354	-0.00053622	0.00641243
28393	-0.000746035	0.00644962
28432	-0.000879554	0.00638442
28471	-0.000765109	0.00633105
28510	-0.000936776	0.00633783
28549	-0.000498072	0.0062846
28588	-0.000459924	0.00631694
28627	-0.000822332	0.0062725
28666	-0.00124196	0.00642555
28705	-0.00053622	0.00640865
28744	-0.000841406	0.00633321
28783	-0.000707887	0.00629436
28822	1.49932	4.98876
28861	1.49911	2.80543
28900	1.49957	2.24954
28939	1.49909	1.98157
28978	1.49922	1.82203
29017	1.49897	1.69297
29056	1.49905	1.63466
29095	1.49911	1.61532
29134	1.49926	1.58398
29173	1.49894	1.5439
29212	1.49922	1.49214
29251	1.49932	1.51694
29290	1.49905	1.50979
29329	1.49947	1.49939
29368	1.49905	1.43305
29407	1.49932	1.46339
29446	1.49928	1.47805
29485	1.49907	1.47649
29524	1.49962	1.42435
29563	1.49928	1.42525
29602	1.49915	1.45611
29641	1.49922	1.45784
29680	1.49934	1.43702
29719	1.49958	1.39353
29758	1.49918	1.4419
29797	1.49936	1.44726
29836	1.49926	1.45089
29875	1.49978	1.38585
29914	1.49918	1.42172
29953	1.49939	1.44799
29992	1.49922	1.45633
30031	1.49928	1.3997
30070	1.49951	1.39135
30109	1.49901	1.4224
30148	1.49913	1.42554
30187	1.49915	1.40534
30226	1.49909	1.35833
30265	1.49951	1.40569
30304	1.49934	1.41602
30343	1.49907	1.41654
30382	1.4993	1.34358
30421	1.49934	1.3782
30460	1.4992	1.39524
30499	1.49928	1.40435
30538	1.49947	1.3575
30577	1.49924	1.35721
30616	-0.000726961	-1.35454
30655	-0.00110844	-0.194666
30694	-0.00086048	-0.076858
30733	-0.00124196	-0.039171
30772	-0.000631591	-0.0207813
30811	-0.000574368	-0.0103876
30850	-0.000746035	-0.00389257
30889	-0.00053622	3.60695e-06
30928	-0.00086048	0.00240845
30967	-0.000993999	0.00458005
31006	-0.00114659	0.00615196
31045	-0.000574368	0.00761613
31084	-0.000459924	0.00808241
31123	-0.000993999	0.00888416
31162	-0.00120381	0.00942145
31201	-0.000879554	0.0103179
31240	-0.000822332	0.0103617
31279	-0.000936776	0.0106228
31318	-0.000784183	0.0109319
31357	-0.000593442	0.0113049
31396	-0.00147085	0.0114039
31435	-0.000803258	0.011395
31474	-0.000822332	0.0114581
31513	-0.00053622	0.0116114
31552	-0.00053622	0.011808
31591	-0.00086048	0.0115986
31630	-0.000917702	0.0116649
31669	-0.000803258	0.0117755
31708	-0.00107029	0.0119237
31747	-0.000936776	0.0116826
31786	-0.000917702	0.0116066
31825	-0.00101307	0.0115764
31864	-0.00095585	0.0117671
31903	-0.000936776	0.0117069
31942	-0.000765109	0.0115256
31981	-0.000746035	0.0115241
32020	-0.000898628	0.0115102
32059	-0.000746035	0.0115954
32098	-0.000669739	0.0113847
32137	-0.00095585	0.0114057
32176	-0.00086048	0.0113495
32215	-0.000841406	0.0115662
32254	-0.000974924	0.0110401
32293	-0.000898628	0.0111154
32332	-0.000822332	0.0111751
32371	-0.000803258	0.0111276
32410	-0.000803258	0.0111614
32449	-0.000688813	0.0109131
32488	-0.00105122	0.0110101
32527	-0.000688813	0.0109179
32566	-0.000841406	0.010983
32605	-0.000879554	0.010834
32644	-0.000765109	0.0107866
32683	-0.00095585	0.0106156
32722	-0.000669739	0.0107368
32761	-0.000784183	0.0106279
32800	-0.00126104	0.0104889
32839	-0.00107029	0.0104804
32878	-0.000688813	0.010574
32917	-0.00118474	0.0103428
32956	-0.000746035	0.0103481
32995	-0.00105122	0.0102072
33034	-0.000784183	0.0102504
33073	-0.00095585	0.0102882
33112	-0.000822332	0.0101835
33151	-0.000669739	0.0101078
33190	-0.00086048	0.0100849
33229	-0.00122289	0.0101739
33268	-0.000669739	0.00985936
33307	-0.000879554	0.00989191
33346	-0.000841406	0.00989936
33385	-0.000650665	0.00989554
33424	-0.000936776	0.00988665
33463	-0.000879554	0.00968006
33502	-0.00120381	0.00969289
33541	-0.00103215	0.00961424
33580	-0.00105122	0.00970073
33619	-0.000936776	0.00954229
33658	-0.000707887	0.00955646
33697	-0.00103215	0.00955933
33736	-0.000917702	0.00959037
33775	-0.000879554	0.00935724
33814	-0.00095585	0.00939887
33853	-0.000879554	0.00943744
33892	-0.000688813	0.0093885
33931	-0.000555294	0.00929133
33970	-0.000517146	0.00918403
34009	-0.000936776	0.00917786
34048	-0.00118474	0.00911757
34087	-0.000936776	0.00923726
34126	-0.000917702	0.00897322
34165	-0.000936776	0.00901198
34204	-0.000917702	0.00899211
34243	-0.000726961	0.00914721
34282	-0.00116567	0.00901176
34321	-0.000784183	0.00888811
34360	-0.00095585	0.00895746
34399	-0.000803258	0.00902367
34438	-0.000898628	0.00878855
34477	-0.000459924	0.0087237
34516	-0.00107029	0.00873751
34555	-0.000841406	0.00875579
34594	-0.000707887	0.00886337
34633	-0.000650665	0.00868192
34672	-0.000898628	0.00864346
34711	-0.00120381	0.00858623
34750	-0.00103215	0.00872832
34789	-0.000726961	0.00856726
34828	-0.000669739	0.00853996
34867	-0.000688813	0.00847101
34906	-0.00129918	0.00854901
34945	-0.000746035	0.00847863
34984	-0.000803258	0.00842304
35023	-0.000746035	0.00843896
35062	-0.000707887	0.00846738
35101	-0.000841406	0.00836329
35140	-0.000688813	0.00833105
35179	-0.00107029	0.00830239
35218	-0.000803258	0.00820611
35257	-0.000803258	0.00830636
35296	-0.000784183	0.0082047
35335	-0.000879554	0.00814725
35374	-0.000879554	0.00819174
35413	-0.000688813	0.00817204
35452	-0.00103215	0.00821504
35491	-0.000746035	0.00813412
35530	-0.000822332	0.00807896
35569	-0.000726961	0.00812411
35608	-0.000574368	0.00805327
35647	-0.00108937	0.00798358
35686	-0.000803258	0.00798568
35725	-0.000688813	0.00798689
35764	-0.000803258	0.00793461
35803	-0.000707887	0.00788713
35842	-0.000803258	0.00779073
35881	-0.000765109	0.0078224
35920	-0.000803258	0.00785151
35959	-0.00112752	0.00779876
35998	-0.000974924	0.00774401
36037	-0.000784183	0.00768373
36076	-0.000898628	0.0077676
36115	-0.000879554	0.00776773
36154	-0.00086048	0.00761994
36193	-0.000936776	0.0076246
36232	-0.000784183	0.00766528
36271	-0.00103215	0.007661
36310	-0.000765109	0.00760453
36349	-0.000936776	0.00767357
36388	-0.000917702	0.00756551
36427	-0.00086048	0.00771409
36466	-0.00126104	0.00763051
36505	-0.000803258	0.00758067
36544	-0.000841406	0.00755813
36583	-0.00101307	0.00766525
36622	-0.000631591	0.00758368
36661	-0.000765109	0.00747828
36700	-0.000803258	0.00739158
36739	-0.000936776	0.00738802
36778	-0.00122289	0.00747127
36817	-0.000898628	0.00733001
36856	-0.000574368	0.0072572
36895	-0.000803258	0.00731964
36934	-0.000688813	0.00744936
36973	-0.000936776	0.00731138
37012	-0.000650665	0.00724708
37051	-0.000898628	0.00731085
37090	-0.00101307	0.00724935
37129	-0.000936776	0.00739411
37168	-0.000936776	0.00715021
37207	-0.00101307	0.00713263
37246	-0.000765109	0.00726493
37285	-0.000898628	0.00722943
37324	-0.000879554	0.0071736
37363	-0.000841406	0.00705543
37402	-0.000822332	0.00713793
37441	-0.000936776	0.00712821
37480	-0.000803258	0.00712203
37519	-0.000822332	0.00713707
37558	-0.000765109	0.00706818
37597	-0.00086048	0.00707241
37636	-0.000612517	0.00706421
37675	-0.000822332	0.0070376
37714	-0.000822332	0.00701445
37753	-0.000898628	0.00690494
37792	-0.000612517	0.00704661
37831	-0.000993999	0.00693266
37870	-0.000650665	0.00695676
37909	-0.000898628	0.00696298
37948	-0.000688813	0.0069661
37987	-0.000841406	0.00692875
38026	-0.00095585	0.00687889
38065	-0.000841406	0.00687086
38104	-0.000517146	0.00692559
38143	-0.000936776	0.00692885
38182	-0.000822332	0.00684111
38221	-0.000917702	0.00687561
38260	-0.00095585	0.00685222
38299	-0.00101307	0.00687611
38338	-0.000803258	0.00683601
38377	-0.000784183	0.00682728
38416	-0.000974924	0.00683473
38455	-0.00053622	0.00678654
38494	-0.000478998	0.00670877
38533	-0.00108937	0.00667654
38572	-0.00105122	0.00660017
38611	-0.000765109	0.00672678
38650	-0.00103215	0.0067521
38689	-0.000841406	0.00668346
38728	-0.000974924	0.0066801
38767	-0.00114659	0.00665037
38806	-0.000669739	0.00662504
38845	-0.000879554	0.00655576
38884	-0.000803258	0.0066522
38923	-0.000707887	0.00663151
38962	-0.000879554	0.00664035
39001	-0.00103215	0.00660546
39040	-0.00107029	0.0066272
39079	-0.000669739	0.00656648
39118	-0.000898628	0.00667314
39157	-0.000898628	0.00652455
39196	-0.000803258	0.00652951
39235	-0.000974924	0.00650672
39274	-0.000669739	0.00650064
39313	-0.000879554	0.00649595
39352	-0.000498072	0.0065019
39391	-0.000879554	0.00645421
39430	-0.000803258	0.00648734
39469	-0.00114659	0.00641937
39508	-0.00105122	0.00639632
39547	-0.000555294	0.00648917
39586	-0.000936776	0.00637026
39625	-0.00105122	0.00652461
39664	-0.000898628	0.00640874
39703	-0.00105122	0.00635623
39742	-0.000746035	0.00634402
39781	-0.00044085	0.0064919
39820	-0.000936776	0.00635779
39859	-0.000974924	0.00634559
39898	-0.00101307	0.00627418
39937	-0.000822332	0.00628589
39976	-0.00107029	0.00632827
40015	-0.000478998	0.00621914
40054	-0.000917702	0.00625395
40093	-0.000746035	0.00625993
40132	-0.00108937	0.00629738
40171	-0.000917702	0.00627133
40210	-0.00053622	0.00623978
40249	-0.000688813	0.00625983
40288	-0.000498072	0.00623199
40327	-0.00086048	0.0062201
40366	-0.00131826	0.00615314
40405	-0.000803258	0.00614187
40444	-0.000803258	0.0061117
40483	-0.000746035	0.00620798
40522	-0.000993999	0.00615208
40561	-0.000555294	0.00608383
40600	-0.000707887	0.0061246
40639	-0.000574368	0.00611075
40678	-0.000746035	0.00614212
40717	-0.000784183	0.00609775
40756	-0.000593442	0.00609668
40795	-0.000250109	0.00611794
40834	-0.000917702	0.00606473
40873	-0.00107029	0.00600697
40912	-0.00086048	0.00597645
40951	-0.000746035	0.00599523
40990	-0.000822332	0.00607905
41029	-0.000879554	0.00603462
41068	-0.000650665	0.00600697
41107	-0.000688813	0.00602021
41146	-0.00122289	0.00607065
41185	-0.00095585	0.00604423
41224	-0.000879554	0.00597428
41263	-0.000879554	0.00605537
41302	-0.000459924	0.00601022
41341	-0.000612517	0.00607758
41380	-0.000974924	0.00593734
41419	-0.000822332	0.00595615
41458	-0.000669739	0.00593078
41497	-0.000898628	0.00593091
41536	-0.000707887	0.00584293
41575	-0.000917702	0.005925
41614	-0.000993999	0.00595457
41653	-0.000917702	0.0059618
41692	-0.000746035	0.00583061
41731	-0.000459924	0.00591376
41770	-0.000459924	0.00590738
41809	-0.000898628	0.00584669
41848	-0.000822332	0.00586116
41887	-0.000784183	0.00581406
41926	-0.000841406	0.00565243
41965	-0.000765109	0.00573664
42004	-0.000803258	0.00584906
42043	-5.93676e-05	0.00580501
42082	-0.000841406	0.00581163
42121	-0.00103215	0.00581978
42160	-0.000936776	0.00577823
42199	-0.000650665	0.00570232
42238	-0.000765109	0.00586583
42277	-0.000898628	0.00580613
42316	-0.00095585	0.00576817
42355	-0.000841406	0.00562691
42394	-0.000765109	0.00581734
42433	-0.00120381	0.00575154
42472	-0.00101307	0.00576818
42511	-0.00110844	0.00571955
42550	-0.00108937	0.00567489
42589	-0.000917702	0.00565217
42628	-0.000383627	0.0056989
42667	-0.00086048	0.00563413
42706	-0.000879554	0.00561716
42745	-0.000917702	0.00555302
42784	-0.000822332	0.00557831
42823	-0.000765109	0.00566154
42862	-0.00116567	0.00565496
42901	-0.000898628	0.00558897
42940	-0.000803258	0.0056032
42979	-0.00101307	0.00559567
43018	-0.000879554	0.00554668
43057	-0.000917702	0.00551275
43096	-0.000784183	0.0055363
43135	-0.000421776	0.00555439
43174	-0.000746035	0.0055897
43213	1.49907	6.76893
43252	1.49882	2.86463
43291	1.49911	2.21166
43330	1.49907	1.90779
43369	1.49934	1.70378
43408	1.49926	1.64851
43447	1.49941	1.59588
43486	1.49922	1.55968
43525	1.49932	1.47578
43564	1.49934	1.48849
43603	1.49939	1.5028
43642	1.49899	1.49884
43681	1.49917	1.45145
43720	1.49917	1.42883
43759	1.49917	1.47071
43798	1.49911	1.47314
43837	1.49932	1.4668
43876	1.49945	1.4072
43915	1.49926	1.4617
43954	1.49962	1.47407
43993	1.49958	1.47024
44032	1.49936	1.39278
44071	1.49905	1.41424
44110	1.49932	1.44513
44149	1.49913	1.44612
44188	1.4993	1.40669
44227	1.49918	1.38393
44266	1.49924	1.4287
44305	1.49873	1.43069
44344	1.49901	1.41048
44383	1.49926	1.34723
44422	1.4992	1.40008
44461	1.49932	1.41228
44500	1.49932	1.41795
44539	1.49918	1.3532
44578	1.49936	1.37695
44617	1.4988	1.41318
44656	1.49875	1.42163
44695	1.49915	1.37886
44734	1.49913	1.34822
44773	1.49934	1.39753
44812	1.49909	1.40176
44851	1.49915	1.39761
44890	1.49911	1.33024
44929	1.49932	1.37494
44968	1.49928	1.38618
45007	-0.000707887	-4.20754
45046	-0.000631591	-0.310521
45085	-0.000936776	-0.133829
45124	-0.00086048	-0.0754051
45163	-0.00103215	-0.0475235
45202	-0.000688813	-0.0311705
45241	-0.000707887	-0.021325
45280	-0.000917702	-0.0143465
45319	-0.000917702	-0.00922137
45358	-0.00053622	-0.0050816
45397	-0.00110844	-0.00275556
45436	-0.00112752	-0.00073429
45475	-0.000593442	0.00108722
45514	-0.00086048	0.00248263
45553	-0.000593442	0.00360792
45592	-0.000822332	0.00434688
45631	-0.000879554	0.0051412
45670	-0.00108937	0.00576558
45709	-0.000650665	0.0066645
45748	-0.000574368	0.00686752
45787	-0.00101307	0.00724474
45826	-0.000974924	0.00758357
45865	-0.00107029	0.00810708
45904	-0.00095585	0.0080853
45943	-0.000803258	0.00821559
45982	-0.000765109	0.00850198
46021	-0.000917702	0.00883592
46060	-0.000555294	0.00891709
46099	-0.00095585	0.00883793
46138	-0.000574368	0.00888405
46177	-0.000746035	0.00904825
46216	-0.000631591	0.00931398
46255	-0.000974924	0.00917105
46294	-0.00086048	0.00921288
46333	-0.000803258	0.0092883
46372	-0.000993999	0.0094195
46411	-0.00110844	0.00935966
46450	-0.00086048	0.00926193
46489	-0.00128011	0.00934194
46528	-0.000688813	0.00948665
46567	-0.000917702	0.00939806
46606	-0.00105122	0.00933867
46645	-0.00103215	0.00925191
46684	-0.000841406	0.00928973
46723	-0.000917702	0.00950005
46762	-0.000898628	0.0093439
46801	-0.00122289	0.00917537
46840	-0.00086048	0.00922741
46879	-0.000612517	0.00941241
46918	-0.00112752	0.0092393
46957	-0.00095585	0.00920439
46996	-0.000803258	0.00927297
47035	-0.000688813	0.00919885
47074	-0.000803258	0.00918761
47113	-0.000841406	0.00915734
47152	-0.00095585	0.00910593
47191	-0.00114659	0.00908091
47230	-0.000669739	0.00915276
47269	-0.000669739	0.00888492
47308	-0.000707887	0.00893372
47347	-0.00086048	0.00889965
47386	-0.000765109	0.00902398
47425	-0.000841406	0.00896722
47464	-0.000765109	0.00876376
47503	-0.00122289	0.00878919
47542	-0.000879554	0.00891785
47581	-0.000936776	0.00875783
47620	-0.000669739	0.00874589
47659	-0.000917702	0.00878622
47698	-0.000459924	0.00870474
47737	-0.000746035	0.0087382
47776	-0.00044085	0.00863204
47815	-0.00120381	0.008452
47854	-0.000784183	0.0086321
47893	-0.000784183	0.0085346
47932	-0.000612517	0.00852288
47971	-0.000841406	0.0083995
48010	-0.000803258	0.00848761
48049	-0.000936776	0.00844403
48088	-0.00095585	0.00840515
48127	-0.00101307	0.00833189
48166	-0.00107029	0.0083252
48205	-0.00114659	0.00835694
48244	-0.000803258	0.00847653
48283	-0.000784183	0.00818653
48322	-0.00116567	0.00825198
48361	-0.00095585	0.00815801
48400	-0.000936776	0.00825081
48439	-0.000993999	0.00808951
48478	-0.00086048	0.00799912
48517	-0.00086048	0.00806839
48556	-0.00086048	0.00809062
48595	-0.00103215	0.0079594
48634	-0.000784183	0.00792654
48673	-0.000917702	0.00786327
48712	-0.00095585	0.00787852
48751	-0.00110844	0.00788459
48790	-0.000631591	0.00777403
48829	-0.000746035	0.00786586
48868	-0.00135641	0.00781992
48907	-0.000841406	0.00787723
48946	-0.000478998	0.00775486
48985	-0.000822332	0.00777371
49024	-0.000669739	0.00778197
49063	-0.00095585	0.00775616
49102	-0.000765109	0.00765711
49141	-0.00110844	0.00762328
49180	-0.000822332	0.00763258
49219	-0.00107029	0.00766905
49258	-0.000993999	0.0076374
49297	-0.000822332	0.00759529
49336	-0.000936776	0.00747984
49375	-0.000993999	0.00759987
49414	-0.000917702	0.00751842
49453	-0.000784183	0.00748374
49492	-0.000898628	0.00738834
49531	-0.000822332	0.00741061
49570	-0.000707887	0.00738734
49609	-0.00107029	0.00736119
49648	-0.000917702	0.00733506
49687	-0.00095585	0.00736577
49726	-0.00101307	0.00731707
49765	-0.000917702	0.00747989
49804	-0.000917702	0.00727413
49843	-0.000593442	0.00721843
49882	-0.000879554	0.00729152
49921	-0.000841406	0.00727901
49960	-0.000765109	0.00718085
49999	-0.000688813	0.00713764
50038	-0.00095585	0.00707026
50077	-0.000936776	0.00706565
50116	-0.000974924	0.0071863
50155	-0.00053622	0.00709602
50194	-0.000974924	0.00708505
50233	-0.000993999	0.00705564
50272	-0.000822332	0.00713799
50311	-0.00107029	0.00697713
50350	-0.000974924	0.00694001
50389	-0.000822332	0.00697122
50428	-0.00103215	0.00703968
50467	-0.00120381	0.006963
50506	-0.000593442	0.00689927
50545	-0.000765109	0.00694777
50584	-0.00053622	0.00695232
50623	-0.000765109	0.00689488
50662	-0.000879554	0.00689861
50701	-0.000898628	0.00688469
50740	-0.000765109	0.00683951
50779	-0.00116567	0.0068955
50818	-0.000631591	0.00677734
50857	-0.000784183	0.00683068
50896	-0.000631591	0.00669759
50935	-0.000879554	0.00682184
50974	-0.000726961	0.00670059
51013	-0.000822332	0.00668446
51052	-0.000784183	0.00672064
51091	-0.000612517	0.00681002
51130	-0.000803258	0.00666334
51169	-0.000974924	0.00657852
51208	-0.000803258	0.0066435
51247	-0.000822332	0.00673264
51286	-0.000650665	0.00663196
51325	-0.000822332	0.00660462
51364	-0.000688813	0.00653003
51403	-0.00095585	0.00662126
51442	-0.00116567	0.00663672
51481	-0.000631591	0.00652498
51520	-0.000402701	0.00652431
51559	-0.000803258	0.00658377
51598	-0.000879554	0.00665894
51637	-0.00101307	0.00655987
51676	-0.000726961	0.00652001
51715	-0.000936776	0.00647079
51754	-0.000993999	0.00648226
51793	-0.000726961	0.00647155
51832	-0.000707887	0.00631351
51871	-0.000383627	0.00641958
51910	-0.00128011	0.00640064
51949	-0.00101307	0.00641841
51988	-0.000784183	0.00636374
52027	-0.000650665	0.00633671
52066	-0.000707887	0.00638641
52105	-0.000688813	0.00637446
52144	-0.000765109	0.00637803
52183	-0.000917702	0.00633372
52222	-0.000898628	0.0062444
52261	-0.000803258	0.00629243
52300	-0.00053622	0.00634519
52339	-0.000574368	0.00626914
52378	-0.00086048	0.00624896
52417	-0.000784183	0.00627617
52456	-0.000974924	0.00627804
52495	-0.000688813	0.00624666
52534	-0.000974924	0.00620796
52573	-0.000803258	0.00611501
52612	-0.000746035	0.00619216
52651	-0.00101307	0.00597545
52690	-0.00095585	0.00606211
52729	-0.000841406	0.00608843
52768	-0.000822332	0.00620652
52807	-0.000669739	0.00614007
52846	-0.000784183	0.00615239
52885	-0.00086048	0.00603762
52924	-0.00110844	0.00598174
52963	-0.000841406	0.00614529
53002	-0.000879554	0.00605059
53041	-0.000879554	0.00605896
53080	-0.000803258	0.00613856
53119	-0.00105122	0.00615924
53158	-0.00101307	0.00605205
53197	-0.00129918	0.0060083
53236	-0.000746035	0.0059742
53275	-0.00118474	0.00593012
53314	-0.00105122	0.00597168
53353	-0.000936776	0.00608752
53392	-0.000498072	0.00598643
53431	-0.000974924	0.00591607
53470	-0.00107029	0.00602602
53509	-0.000784183	0.0059712
53548	-0.00112752	0.00607089
53587	-0.000765109	0.00602291
53626	-0.000974924	0.00593655
53665	-0.00086048	0.00590553
53704	-0.000726961	0.00587466
53743	-0.000917702	0.00579184
53782	-0.000879554	0.0057493
53821	-0.000898628	0.00583401
53860	-0.000803258	0.00571993
53899	-0.000498072	0.00586413
53938	-0.000726961	0.00582119
53977	-0.00086048	0.00574992
54016	-0.000898628	0.00577315
54055	-0.000746035	0.00580859
54094	-0.000612517	0.00581656
54133	-0.00095585	0.00572104
54172	-0.00118474	0.00571171
54211	-0.000784183	0.00569303
54250	-0.000936776	0.0057159
54289	-0.000765109	0.00571876
54328	-0.000936776	0.00578498
54367	-0.000669739	0.00572836
54406	-0.000993999	0.00572232
54445	-0.00086048	0.0057755
54484	-0.000917702	0.00566311
54523	-0.00095585	0.00568297
54562	-0.00118474	0.00569681
54601	-0.00110844	0.00570212
54640	-0.000974924	0.00582256
54679	-0.000765109	0.00564273
54718	-0.000707887	0.00556436
54757	-0.000746035	0.00552235
54796	-0.000841406	0.00564893
54835	-0.00120381	0.00565168
54874	-0.00103215	0.00560718
54913	-0.000879554	0.00562227
54952	-0.000784183	0.00545442
54991	-0.000765109	0.00561427
55030	-0.000669739	0.00549974
55069	-0.000707887	0.00553265
55108	-0.000498072	0.00553299
55147	-0.00105122	0.00554186
55186	-0.000593442	0.00547266
55225	-0.000784183	0.0054994
55264	-0.00103215	0.00551423
55303	-0.00095585	0.00547048
55342	-0.00053622	0.00547504
55381	-0.000784183	0.00549443
55420	-0.00110844	0.00545459
55459	-0.000841406	0.00552668
55498	-0.000841406	0.00564866
55537	-0.00131826	0.00540172
55576	-0.000784183	0.00545729
55615	-0.000688813	0.00544268
55654	-0.000726961	0.00544959
55693	-0.000765109	0.00543376
55732	-0.000803258	0.00539391
55771	-0.00107029	0.00539181
55810	-0.000784183	0.0052979
55849	-0.00095585	0.00540229
55888	-0.000726961	0.00530293
55927	-0.000669739	0.00533682
55966	-0.00135641	0.00532604
56005	-0.000498072	0.00541063
56044	-0.000993999	0.00533151
56083	-0.000574368	0.0054033
56122	-0.000841406	0.00535661
56161	-0.000879554	0.00531163
56200	-0.000841406	0.0054598
56239	-0.000898628	0.00537127
56278	-0.000917702	0.00529158
56317	-0.00095585	0.00531432
56356	-0.00086048	0.00538272
56395	-0.00105122	0.00528207
56434	-0.000917702	0.00525956
56473	-0.000822332	0.005251
56512	-0.000345479	0.00528691
56551	-0.000879554	0.00530896
56590	-0.000459924	0.00523584
56629	-0.000841406	0.00525575
56668	-0.000841406	0.0052036
56707	-0.000574368	0.00524549
56746	-0.000765109	0.00529258
56785	-0.000841406	0.00517201
56824	-0.000784183	0.00523683
56863	-0.000765109	0.00527094
56902	-0.000879554	0.00519129
56941	-0.000517146	0.00534881
56980	-0.00112752	0.0052206
57019	-0.000974924	0.0051489
57058	-0.000993999	0.0051885
57097	-0.000517146	0.00508246
57136	-0.00124196	0.00515914
57175	-0.000402701	0.00523039
57214	-0.000746035	0.00504515
57253	-0.000917702	0.00514632
57292	-0.00124196	0.00513219
57331	-0.000936776	0.00520317
57370	-0.000707887	0.00506886
57409	-0.000746035	0.00507947
57448	-0.00126104	0.00517707
57487	-0.000803258	0.00509674
57526	-0.00116567	0.00514103
57565	-0.000974924	0.00501563
57600	-0.000822332	0.00507723