File: Data_24_Experiment/CA_259_C01.txt
time/s	Ewe/V	<I>/mA
1	1.49951	412.022
40	1.49951	20.5336
79	1.49951	41.6361
118	1.49953	51.1934
157	1.49953	46.1572
196	1.49953	37.5169
235	1.4994	30.8971
274	1.49949	26.6237
313	1.49953	23.5625
352	1.49957	21.2962
391	1.49955	19.662
430	1.49959	18.457
469	1.49947	17.5528
508	1.49941	16.7181
547	1.49936	16.1375
586	1.4994	15.6723
625	1.49943	15.3003
664	1.49953	14.8994
703	1.49938	14.5214
742	1.49932	14.2664
781	1.49957	14.0289
820	1.49943	13.7627
859	1.49968	13.4214
898	1.49964	13.2243
937	1.49938	12.9725
976	1.49955	12.7512
1015	1.49941	12.3977
1054	1.49943	12.1325
1093	1.49953	11.8591
1132	1.49959	11.6032
1171	1.49951	11.2379
1210	1.49949	10.8853
1249	1.49959	10.5774
1288	1.49955	10.2573
1327	1.49941	9.91431
1366	1.49961	9.50596
1405	1.49941	9.22865
1444	1.49951	8.91474
1483	1.49959	8.62094
1522	1.49961	8.24568
1561	1.49947	7.9872
1600	1.49953	7.73348
1639	1.49943	7.48715
1678	1.49959	7.18015
1717	1.49947	6.92256
1756	1.49945	6.71877
1795	1.49959	6.49982
1833.95	-0.000877742	-1.12669
1872.95	-0.00101126	-0.409657
1911.95	-0.00091589	-0.27079
1950.95	-0.00082052	-0.222002
1989.95	-0.00103033	-0.20352
2028.95	-0.00106848	-0.191815
2067.95	-0.000992187	-0.181718
2106.95	-0.000934964	-0.175797
2145.95	-0.000877742	-0.173803
2184.95	-0.000934964	-0.171885
2223.95	-0.000992187	-0.167313
2262.95	-0.000973113	-0.165256
2301.95	-0.000973113	-0.159783
2340.95	-0.000992187	-0.154137
2379.95	-0.000954038	-0.146991
2418.95	-0.000801446	-0.144504
2457.95	-0.00106848	-0.142555
2496.95	-0.000992187	-0.141411
2535.95	-0.000992187	-0.138117
2574.95	-0.00082052	-0.132754
2613.95	-0.000858668	-0.125032
2652.95	-0.000934964	-0.122674
2691.95	-0.000801446	-0.124216
2730.95	-0.00101126	-0.121666
2769.95	-0.000934964	-0.116997
2808.95	-0.00101126	-0.11033
2847.95	-0.00091589	-0.107519
2886.95	-0.00103033	-0.104829
2925.95	-0.00091589	-0.10373
2964.95	-0.000934964	-0.10156
3003.95	-0.000973113	-0.0997863
3042.95	-0.000896816	-0.0926909
3081.95	-0.000973113	-0.089294
3120.95	-0.00091589	-0.088654
3159.95	-0.000896816	-0.0892781
3198.95	-0.00101126	-0.0856492
3237.95	-0.000858668	-0.0822975
3276.95	-0.000934964	-0.0815335
3315.95	-0.000954038	-0.08178
3354.95	-0.000801446	-0.0804135
3393.95	-0.000896816	-0.0760412
3432.95	-0.00091589	-0.0734766
3471.95	-0.000992187	-0.0729946
3510.95	-0.000877742	-0.0728591
3549.95	-0.000839594	-0.0697076
3588.95	-0.000992187	-0.0697341
3627.95	-0.000839594	-0.0684947
3666.95	-0.000954038	-0.0680948
3705.95	-0.000992187	-0.0639923
3744.95	-0.000896816	-0.0623719
3783.95	-0.000954038	-0.0629879
3822.95	-0.000877742	-0.0632983
3861.95	-0.000877742	-0.0616819
3900.95	-0.000877742	-0.0582681
3939.95	-0.00106848	-0.0567238
3978.95	-0.000954038	-0.0567825
4017.95	-0.00091589	-0.0573024
4056.95	-0.000934964	-0.0549082
4095.95	-0.00091589	-0.0545183
4134.95	-0.00091589	-0.052636
4173.95	-0.00103033	-0.052257
4212.95	-0.000896816	-0.0489603
4251.95	-0.00103033	-0.0480111
4290.95	-0.000973113	-0.0469273
4329.95	-0.000896816	-0.0473289
4368.95	-0.000954038	-0.0447529
4407.95	-0.000954038	-0.0418725
4446.95	-0.000934964	-0.0408737
4485.95	-0.000896816	-0.0416146
4524.95	-0.000801446	-0.0421743
4563.95	-0.00091589	-0.039429
4602.95	-0.00110663	-0.0384838
4641.95	-0.000992187	-0.0373769
4680.95	-0.000992187	-0.0369788
4719.95	-0.000992187	-0.0335088
4758.95	-0.000839594	-0.0323808
4797.95	-0.000934964	-0.0313772
4836.95	-0.000877742	-0.0314636
4875.95	-0.000896816	-0.0296196
4914.95	-0.000934964	-0.0273563
4953.95	-0.000896816	-0.0259592
4992.95	-0.00091589	-0.025202
5031.95	-0.000954038	-0.0241419
5070.95	-0.00104941	-0.0207899
5109.95	-0.00104941	-0.0206449
5148.95	-0.000954038	-0.0195418
5187.95	-0.000934964	-0.019823
5226.95	-0.00101126	-0.0160641
5265.95	-0.000992187	-0.0160159
5304.95	-0.000954038	-0.0156039
5343.95	-0.000839594	-0.0161815
5382.95	-0.000896816	-0.0140827
5421.95	-0.000877742	-0.0133515
5460.95	-0.000896816	-0.013279
5499.95	-0.00103033	-0.0125898
5538.95	-0.00082052	-0.0114156
5577.95	-0.000839594	-0.00814113
5616.95	-0.000839594	-0.00775573
5655.95	-0.000763297	-0.00709644
5694.95	-0.00091589	-0.00731466
5733.95	-0.000992187	-0.003628
5772.95	-0.00101126	-0.00415167
5811.95	-0.000973113	-0.00379165
5850.95	-0.000954038	-0.00479226
5889.95	-0.000896816	-0.00181547
5928.95	-0.000954038	-0.00100205
5967.95	-0.000763297	-0.00079441
6006.95	-0.000877742	-0.000732111
6045.95	-0.000858668	2.53811e-05
6084.95	-0.000896816	0.00295191
6123.95	-0.000839594	0.00248147
6162.95	-0.000992187	0.00292621
6201.95	-0.000954038	0.00287666
6240.95	-0.000934964	0.00572967
6279.95	-0.00091589	0.00482663
6318.95	-0.000877742	0.00529066
6357.95	-0.000877742	0.00544685
6396.95	-0.00108756	0.00857628
6435.95	-0.000839594	0.00885795
6474.95	-0.00082052	0.00887093
6513.95	-0.00082052	0.00904814
6552.95	-0.000954038	0.0104885
6591.95	-0.000992187	0.0125782
6630.95	-0.000877742	0.0121073
6669.95	-0.000896816	0.0129514
6708.95	-0.000954038	0.0126388
6747.95	-0.00103033	0.0156221
6786.95	-0.00103033	0.0142889
6825.95	-0.000973113	0.0150365
6864.95	-0.000992187	0.0149488
6903.95	-0.000858668	0.0175609
6942.95	-0.000954038	0.0171671
6981.95	-0.000954038	0.0168068
7020.95	-0.00082052	0.0166916
7059.95	-0.000954038	0.0185243
7098.95	-0.000896816	0.0204401
7137.95	-0.00103033	0.0189666
7176.95	-0.000896816	0.0189958
7215.95	-0.00101126	0.0182349
7254.95	-0.000763297	0.021349
7293.95	-0.000973113	0.0199408
7332.95	-0.000973113	0.0203854
7371.95	-0.000839594	0.0198046
7410.95	-0.000839594	0.0230106
7449.95	-0.00091589	0.0226861
7488.95	-0.000877742	0.0228582
7527.95	-0.000877742	0.0227343
7566.95	-0.000973113	0.0244551
7605.95	-0.000934964	0.0257374
7644.95	-0.00101126	0.0238872
7683.95	-0.000896816	0.0234
7722.95	-0.000896816	0.0251596
7761.95	-0.00091589	0.0288882
7800.95	-0.00091589	0.0265205
7839.95	-0.00101126	0.0254305
7878.95	-0.000973113	0.0251887
7917.95	-0.00108756	0.0284796
7956.95	-0.00091589	0.0279631
7995.95	-0.000934964	0.0281071
8034.95	-0.000858668	0.0283742
8073.95	-0.000954038	0.0305518
8112.95	-0.000896816	0.0316837
8151.95	-0.000973113	0.0300968
8190.95	-0.000896816	0.0296495
8229.95	-0.00104941	0.0298324
8268.95	-0.00103033	0.0328861
8307.95	-0.00103033	0.0313446
8346.95	-0.000934964	0.0313547
8385.95	-0.00103033	0.0318076
8424.95	-0.000934964	0.0357662
8463.95	-0.000992187	0.034271
8502.95	-0.000973113	0.0333012
8541.95	-0.000934964	0.0325084
8580.95	-0.000992187	0.0343506
8619.95	-0.000954038	0.0356712
8658.95	-0.00091589	0.0353631
8697.95	-0.000877742	0.0358669
8736.95	-0.000973113	0.0362889
8775.95	-0.000896816	0.038478
8814.95	-0.000877742	0.0364164
8853.95	-0.000973113	0.0362847
8892.95	-0.00101126	0.036092
8931.95	-0.000954038	0.039258
8970.95	-0.000934964	0.0378967
9009.95	-0.000992187	0.037802
9048.95	-0.00101126	0.037144
9087.95	-0.000934964	0.0390081
9126.95	-0.000782372	0.0391043
9165.95	-0.00108756	0.0379624
9204.95	-0.000954038	0.037507
9243.95	-0.000973113	0.0377764
9282.95	-0.000877742	0.0402918
9321.95	-0.000877742	0.0389271
9360.95	-0.000973113	0.0389742
9399.95	-0.000782372	0.0385391
9438.95	-0.000992187	0.0410979
9477.95	-0.000992187	0.0390606
9516.95	-0.000858668	0.0386402
9555.95	-0.00104941	0.0383231
9594.95	-0.00103033	0.0401683
9633.95	-0.000954038	0.039893
9672.95	-0.000877742	0.0387329
9711.95	-0.000801446	0.0383647
9750.95	-0.000992187	0.0389445
9789.95	-0.000934964	0.04048
9828.95	-0.000896816	0.0389281
9867.95	-0.000992187	0.0385479
9906.95	-0.000992187	0.0373903
9945.95	-0.000877742	0.0393379
9984.95	-0.000896816	0.0368109
10024	-0.000877742	0.0360227
10063	-0.000896816	0.0355384
10102	-0.000858668	0.0377387
10141	-0.000744223	0.0374788
10180	-0.000858668	0.0365975
10219	-0.00104941	0.0362154
10258	-0.000934964	0.0366706
10297	-0.000934964	0.0388586
10336	-0.00101126	0.0376605
10375	-0.000782372	0.037013
10414	-0.00106848	0.0354927
10453	-0.000992187	0.0369756
10492	-0.000896816	0.0352599
10531	-0.00082052	0.0355228
10570	-0.000934964	0.0353255
10609	-0.000801446	0.0374305
10648	-0.000992187	0.0367918
10687	-0.00091589	0.0355226
10726	-0.00104941	0.0349198
10765	-0.00101126	0.0348597
10804	-2.00097	-105.844
10843	-2.00101	-53.0829
10882	-2.00089	-33.6601
10921	-2.00101	-24.0677
10960	-2.00084	-18.3572
10999	-2.00101	-14.6218
11038	-2.00084	-12.0401
11077	-2.00085	-10.183
11116	-2.00087	-8.81475
11155	-2.00103	-7.77443
11194	-2.00085	-6.94807
11233	-2.00091	-6.28762
11272	-2.00093	-5.73232
11311	-2.00089	-5.30118
11350	-2.00095	-4.9142
11389	-2.00084	-4.60864
11428	-2.0008	-4.33372
11467	-2.00087	-4.09846
11506	-2.00085	-3.88163
11545	-2.00089	-3.69661
11584	-2.00084	-3.53795
11623	-2.00095	-3.39967
11662	-2.00084	-3.26458
11701	-0.000877742	249.805
11740	-0.000839594	1.96437
11779	-0.000782372	0.951979
11818	-0.000896816	0.690085
11857	-0.00082052	0.558759
11896	-0.000877742	0.48962
11935	-0.00101126	0.439866
11974	-0.00091589	0.414954
12013	-0.00104941	0.379072
12052	-0.000934964	0.357198
12091	-0.000858668	0.338003
12130	-0.00082052	0.329739
12169	-0.00091589	0.31162
12208	-0.000934964	0.298471
12247	-0.00091589	0.287454
12286	-0.000858668	0.282012
12325	-0.000954038	0.275196
12364	-0.000839594	0.26362
12403	-0.00082052	0.256856
12442	-0.000801446	0.250714
12481	-0.00103033	0.25117
12520	-0.00110663	0.239723
12559	-0.000992187	0.235247
12598	-0.000934964	0.229559
12637	-0.000973113	0.231424
12676	-0.000839594	0.224042
12715	-0.000934964	0.219264
12754	-0.000934964	0.215119
12793	-0.000934964	0.214465
12832	-0.000839594	0.212532
12871	-0.000877742	0.206838
12910	-0.00101126	0.204149
12949	-0.000839594	0.201718
12988	-0.000934964	0.203997
13027	-0.00082052	0.196766
13066	-0.00101126	0.19473
13105	-0.000973113	0.191717
13144	-0.000934964	0.194687
13183	-0.000992187	0.189154
13222	-0.00091589	0.186435
13261	-0.000934964	0.184095
13300	-0.000896816	0.185213
13339	-0.000954038	0.184028
13378	-0.00106848	0.179788
13417	-0.00091589	0.178248
13456	-0.000954038	0.177047
13495	-0.00104941	0.179346
13534	-0.00101126	0.174319
13573	-0.000934964	0.172959
13612	-0.000896816	0.170738
13651	-0.000934964	0.174149
13690	-0.000877742	0.169966
13729	-0.000934964	0.167902
13768	-0.00101126	0.166149
13807	-0.000877742	0.1675
13846	-0.00106848	0.166519
13885	-0.00101126	0.163239
13924	-0.000896816	0.161849
13963	-0.000954038	0.16112
14002	-0.000896816	0.163757
14041	-0.000954038	0.159015
14080	-0.000992187	0.158318
14119	-0.000839594	0.156763
14158	-0.00101126	0.160268
14197	-0.000934964	0.156407
14236	-0.000839594	0.154937
14275	-0.000934964	0.153101
14314	-0.000934964	0.155156
14353	-0.000858668	0.154789
14392	-0.000934964	0.15211
14431	1.49957	31.122
14470	1.4994	14.7402
14509	1.49947	10.3884
14548	1.49959	8.69748
14587	1.49947	7.87801
14626	1.4994	7.46614
14665	1.49955	7.13278
14704	1.49943	6.94235
14743	1.49945	6.92751
14782	1.49955	6.92367
14821	1.49955	6.91208
14860	1.49949	6.81412
14899	1.49955	6.8799
14938	1.49943	6.9207
14977	1.49945	6.96991
15016	1.49961	6.87749
15055	1.49953	6.91467
15094	1.49941	6.94822
15133	1.49957	6.98577
15172	1.49947	6.91621
15211	1.49957	6.87365
15250	1.49951	6.89643
15289	1.49945	6.90874
15328	1.49949	6.8675
15367	1.49968	6.74988
15406	1.49966	6.76269
15445	1.49957	6.75708
15484	1.49957	6.74347
15523	1.49943	6.59478
15562	1.49947	6.58673
15601	1.49964	6.56088
15640	1.49947	6.53558
15679	1.49951	6.40331
15718	1.49945	6.32081
15757	1.4994	6.29545
15796	1.49961	6.25045
15835	1.49953	6.15919
15874	1.49943	6.0181
15913	1.4994	5.98761
15952	1.4994	5.92184
15991	1.49951	5.85348
16030	1.49943	5.66677
16069	1.49961	5.61754
16108	1.49957	5.54511
16147	1.49955	5.47483
16186	1.49945	5.28543
16225	-0.00114478	-1.6528
16264	-0.00104941	-0.433372
16303	-0.000954038	-0.225189
16342	-0.000934964	-0.156563
16381	-0.000992187	-0.119917
16420	-0.000839594	-0.098636
16459	-0.00082052	-0.0875332
16498	-0.00082052	-0.0820162
16537	-0.000896816	-0.0798643
16576	-0.00106848	-0.0743687
16615	-0.000973113	-0.068996
16654	-0.000934964	-0.0653428
16693	-0.000954038	-0.0641679
16732	-0.00082052	-0.0623687
16771	-0.000801446	-0.0616646
16810	-0.000877742	-0.061696
16849	-0.000858668	-0.0613361
16888	-0.00082052	-0.0602301
16927	-0.000877742	-0.0589491
16966	-0.000782372	-0.0584103
17005	-0.000858668	-0.0577638
17044	-0.000877742	-0.0573913
17083	-0.000934964	-0.0579057
17122	-0.000877742	-0.0576718
17161	-0.00091589	-0.057322
17200	-0.000954038	-0.0557652
17239	-0.000992187	-0.0553834
17278	-0.000934964	-0.054593
17317	-0.00091589	-0.0545083
17356	-0.000896816	-0.0532226
17395	-0.000877742	-0.0528278
17434	-0.000954038	-0.0526979
17473	-0.000877742	-0.0528773
17512	-0.00103033	-0.0528704
17551	-0.00082052	-0.0520967
17590	-0.00101126	-0.0520415
17629	-0.00082052	-0.0516704
17668	-0.00082052	-0.0511798
17707	-0.00103033	-0.0490592
17746	-0.000934964	-0.0482395
17785	-0.000934964	-0.048003
17824	-0.000744223	-0.0476706
17863	-0.000973113	-0.0459345
17902	-0.00108756	-0.045144
17941	-0.00091589	-0.0446012
17980	-0.000992187	-0.0440028
18019	-0.000896816	-0.0427382
18058	-0.000839594	-0.041247
18097	-0.00101126	-0.040821
18136	-0.00101126	-0.0400944
18175	-0.000839594	-0.0399109
18214	-0.00091589	-0.0382402
18253	-0.00091589	-0.0382912
18292	-0.00104941	-0.0381685
18331	-0.000839594	-0.0382868
18370	-0.000973113	-0.0362577
18409	-0.000896816	-0.0353947
18448	-0.000954038	-0.0347831
18487	-0.00101126	-0.0341632
18526	-0.00101126	-0.0326571
18565	-0.000992187	-0.0311606
18604	-0.00091589	-0.0311513
18643	-0.000992187	-0.0310267
18682	-0.00103033	-0.0311603
18721	-0.000954038	-0.0292243
18760	-0.000877742	-0.029285
18799	-0.000877742	-0.0285372
18838	-0.00091589	-0.0282913
18877	-0.00082052	-0.0264179
18916	-0.000877742	-0.0257641
18955	-0.00106848	-0.0252256
18994	-0.00091589	-0.0250418
19033	-0.00091589	-0.0243806
19072	-0.00091589	-0.023412
19111	-0.00091589	-0.0231401
19150	-0.000954038	-0.0229438
19189	-0.00106848	-0.0229179
19228	-0.000973113	-0.0212693
19267	-0.000954038	-0.0212986
19306	-0.00101126	-0.0205643
19345	-0.000954038	-0.0205183
19384	-0.00101126	-0.0184126
19423	-0.000992187	-0.0180002
19462	-0.00101126	-0.0175871
19501	-0.00101126	-0.0178043
19540	-0.000782372	-0.0170697
19579	-0.000877742	-0.0162151
19618	-0.000858668	-0.0161139
19657	-0.000934964	-0.0154953
19696	-0.000992187	-0.0151963
19735	-0.00082052	-0.0130355
19774	-0.000896816	-0.0131919
19813	-0.00091589	-0.012817
19852	-0.00091589	-0.0129136
19891	-0.000896816	-0.0109549
19930	-0.00082052	-0.0110657
19969	-0.00103033	-0.0108098
20008	-0.00091589	-0.0108317
20047	-0.00091589	-0.00968554
20086	-0.00091589	-0.00901114
20125	-0.000973113	-0.00892995
20164	-0.00082052	-0.00832994
20203	-0.000973113	-0.00797113
20242	-0.00091589	-0.00645627
20281	-0.00091589	-0.00682073
20320	-0.000954038	-0.00624135
20359	-0.000973113	-0.00624895
20398	-0.000954038	-0.00455778
20437	-0.000782372	-0.00486045
20476	-0.000877742	-0.00449714
20515	-0.00101126	-0.00447419
20554	-0.000858668	-0.00335398
20593	-0.000858668	-0.00288567
20632	-0.000782372	-0.00302703
20671	-0.000934964	-0.0034404
20710	-0.000839594	-0.00324775
20749	-0.000934964	-0.00158299
20788	-0.000896816	-0.00203057
20827	-0.000934964	-0.00179096
20866	-0.00101126	-0.00203292
20905	-0.000992187	-4.86025e-05
20944	-0.00101126	2.69303e-05
20983	-0.000877742	0.000126716
21022	-0.000839594	0.000233984
21061	-0.000992187	0.00165967
21100	-0.000839594	0.00225407
21139	-0.000896816	0.00212839
21178	-0.000934964	0.00194808
21217	-0.00101126	0.00207527
21256	-0.00101126	0.00354203
21295	-0.000954038	0.00318254
21334	-0.000934964	0.00322394
21373	-0.000954038	0.00316339
21412	-0.00082052	0.0052149
21451	-0.000992187	0.00481746
21490	-0.000973113	0.00540635
21529	-0.00091589	0.0053052
21568	-0.00114478	0.00652187
21607	-0.000858668	0.00665427
21646	-0.000896816	0.00636579
21685	-0.000896816	0.00658034
21724	-0.000992187	0.00723963
21763	-0.000877742	0.00851936
21802	-0.00104941	0.00779624
21841	-0.000954038	0.00797036
21880	-0.00106848	0.00806647
21919	-0.000877742	0.010115
21958	-0.000973113	0.00971521
21997	-0.000801446	0.00982876
22036	-0.000858668	0.00970264
22075	-0.00104941	0.0110632
22114	-0.000973113	0.0108107
22153	-0.000954038	0.0105958
22192	-0.000877742	0.01062
22231	-0.000858668	0.0112903
22270	-0.000954038	0.0124936
22309	-0.000877742	0.0119424
22348	-0.00101126	0.0120933
22387	-0.000934964	0.0121349
22426	-0.00101126	0.0138003
22465	-0.000839594	0.0129094
22504	-0.000877742	0.0130425
22543	-0.00091589	0.0129103
22582	-0.00091589	0.0142743
22621	-0.000877742	0.0141901
22660	-0.000763297	0.0141351
22699	-0.00101126	0.0140438
22738	-0.000973113	0.0147414
22777	-0.00091589	0.0157247
22816	-0.000934964	0.0151993
22855	-0.000934964	0.015099
22894	-0.000934964	0.0150897
22933	-0.000934964	0.0168374
22972	-0.000896816	0.016008
23011	-0.000992187	0.0158115
23050	-0.000954038	0.0156939
23089	-0.000992187	0.0171041
23128	-0.000877742	0.0169314
23167	-0.000954038	0.0166634
23206	-0.000839594	0.0164545
23245	-0.00103033	0.0171927
23284	-0.000973113	0.018015
23323	-0.000992187	0.0174821
23362	-0.00101126	0.017517
23401	-0.000992187	0.0176601
23440	-0.000858668	0.019429
23479	-0.000992187	0.0186465
23518	-0.000934964	0.0187018
23557	-0.000763297	0.0187077
23596	-0.000954038	0.0200906
23635	-0.000934964	0.0198079
23674	-0.000992187	0.0195428
23713	-0.000934964	0.0194919
23752	-0.00101126	0.0200621
23791	-0.000954038	0.0207493
23830	-0.00104941	0.0200854
23869	-0.00091589	0.0201711
23908	-0.000934964	0.0202487
23947	-0.000992187	0.0216645
23986	-0.000896816	0.0208482
24025	-0.000954038	0.0210111
24064	-0.000877742	0.0210264
24103	-0.000973113	0.0223638
24142	-0.000973113	0.0217603
24181	-0.000954038	0.0217583
24220	-0.000801446	0.0215305
24259	-0.000877742	0.0222385
24298	-0.000954038	0.02262
24337	-0.000934964	0.0223231
24376	-0.000896816	0.0222015
24415	-0.00101126	0.022193
24454	-0.000801446	0.0236934
24493	-0.000973113	0.0229499
24532	-0.000992187	0.0228289
24571	-0.000954038	0.0226084
24610	-0.000954038	0.0238267
24649	-0.000839594	0.0231158
24688	-0.000934964	0.0231808
24727	-0.000858668	0.0227884
24766	-0.000973113	0.0236284
24805	-0.000877742	0.0239805
24844	-0.000858668	0.0236909
24883	-0.000973113	0.0236068
24922	-0.000934964	0.0236123
24961	-0.000877742	0.0249823
25000	-0.000896816	0.0241695
25039	-0.00091589	0.0242657
25078	-0.000934964	0.0239859
25117	-0.000858668	0.025507
25156	-0.000973113	0.024773
25195	-0.00091589	0.0246843
25234	-2.00087	-41.0728
25273	-2.00082	-22.6118
25312	-2.00095	-15.2043
25351	-2.00099	-11.3666
25390	-2.00091	-8.98462
25429	-2.00097	-7.44018
25468	-2.00093	-6.39337
25507	-2.00091	-5.58214
25546	-2.00095	-4.97235
25585	-2.00076	-4.50998
25624	-2.00097	-4.14622
25663	-2.00082	-3.8203
25702	-2.00097	-3.53488
25741	-2.00093	-3.30882
25780	-2.00078	-3.12656
25819	-2.00078	-2.95832
25858	-2.00099	-2.80243
25897	-2.00085	-2.67131
25936	-2.00093	-2.56242
25975	-2.00085	-2.48461
26014	-2.00097	-2.37353
26053	-2.00089	-2.29018
26092	-2.0008	-2.20984
26131	-0.000973113	3.27426
26170	-0.000934964	1.17253
26209	-0.000973113	0.74892
26248	-0.000896816	0.579851
26287	-0.000973113	0.497798
26326	-0.00101126	0.436591
26365	-0.000973113	0.393516
26404	-0.00108756	0.362876
26443	-0.00112571	0.340235
26482	-0.000839594	0.324921
26521	-0.000934964	0.303651
26560	-0.000954038	0.289308
26599	-0.00103033	0.276491
26638	-0.000934964	0.271447
26677	-0.000934964	0.256863
26716	-0.000877742	0.24736
26755	-0.000858668	0.238908
26794	-0.000934964	0.234958
26833	-0.00106848	0.227151
26872	-0.000858668	0.219092
26911	-0.000992187	0.212859
26950	-0.000992187	0.208655
26989	-0.000877742	0.206178
27028	-0.000992187	0.198248
27067	-0.00103033	0.193739
27106	-0.00091589	0.189105
27145	-0.000954038	0.189864
27184	-0.00091589	0.182707
27223	-0.000877742	0.179214
27262	-0.000954038	0.175203
27301	-0.000877742	0.175255
27340	-0.00110663	0.171391
27379	-0.000877742	0.167437
27418	-0.000725149	0.164718
27457	-0.000763297	0.16324
27496	-0.000744223	0.16288
27535	-0.000763297	0.158233
27574	-0.000858668	0.15601
27613	-0.000992187	0.153543
27652	-0.000858668	0.155452
27691	-0.000934964	0.150816
27730	-0.000877742	0.149137
27769	-0.000877742	0.14659
27808	-0.00103033	0.147996
27847	-0.00082052	0.145401
27886	-0.000992187	0.142959
27925	-0.000973113	0.141334
27964	-0.000973113	0.141039
28003	-0.000877742	0.141282
28042	-0.00101126	0.137892
28081	-0.00082052	0.136622
28120	-0.000763297	0.135418
28159	-0.000839594	0.13714
28198	-0.00101126	0.133762
28237	-0.000954038	0.132387
28276	-0.000934964	0.130806
28315	-0.000934964	0.132474
28354	-0.000992187	0.130266
28393	-0.000763297	0.128752
28432	-0.000973113	0.127549
28471	-0.000973113	0.127718
28510	-0.000934964	0.127927
28549	-0.00091589	0.125453
28588	-0.000896816	0.124564
28627	-0.000992187	0.123535
28666	-0.000896816	0.125523
28705	-0.00106848	0.122811
28744	-0.000877742	0.121969
28783	-0.000954038	0.120703
28822	1.49953	30.4931
28861	1.49957	13.1023
28900	1.49957	9.16948
28939	1.49959	7.63853
28978	1.49943	6.85066
29017	1.49941	6.23258
29056	1.49961	5.98091
29095	1.49934	5.80253
29134	1.49936	5.69396
29173	1.49951	5.47856
29212	1.49957	5.3984
29251	1.49947	5.35774
29290	1.49949	5.32548
29329	1.49945	5.21912
29368	1.49941	5.12472
29407	1.49951	5.11066
29446	1.49949	5.06456
29485	1.49962	5.00308
29524	1.49949	4.84788
29563	1.49941	4.79045
29602	1.49955	4.72786
29641	1.49949	4.66049
29680	1.49953	4.49748
29719	1.49951	4.45047
29758	1.49949	4.38111
29797	1.49959	4.30856
29836	1.49938	4.18888
29875	1.49949	4.07701
29914	1.49966	4.01822
29953	1.49945	3.94281
29992	1.49951	3.83819
30031	1.49947	3.60842
30070	1.49941	3.49165
30109	1.49953	3.39715
30148	1.49953	3.32091
30187	1.49957	3.21496
30226	1.49943	3.12531
30265	1.49949	3.06339
30304	1.49947	2.97986
30343	1.49966	2.89668
30382	1.49949	2.75155
30421	1.49957	2.7036
30460	1.49949	2.62005
30499	1.49941	2.54442
30538	1.49934	2.36436
30577	1.49947	2.31626
30616	-0.000896816	-1.79644
30655	-0.000954038	-0.372233
30694	-0.000858668	-0.184053
30733	-0.000744223	-0.114422
30772	-0.000839594	-0.0816065
30811	-0.000877742	-0.0621849
30850	-0.000858668	-0.0507702
30889	-0.00104941	-0.0414112
30928	-0.000782372	-0.0350048
30967	-0.00091589	-0.0299796
31006	-0.000973113	-0.0256737
31045	-0.00091589	-0.0222286
31084	-0.000839594	-0.019413
31123	-0.000839594	-0.0171093
31162	-0.000954038	-0.0151233
31201	-0.00082052	-0.0133614
31240	-0.000782372	-0.012223
31279	-0.00108756	-0.0108394
31318	-0.000934964	-0.00998963
31357	-0.00103033	-0.00850298
31396	-0.000896816	-0.00821035
31435	-0.000992187	-0.00772126
31474	-0.00091589	-0.00737283
31513	-0.000896816	-0.00612797
31552	-0.000782372	-0.00575369
31591	-0.000877742	-0.00568153
31630	-0.000877742	-0.00541198
31669	-0.000782372	-0.00455953
31708	-0.000782372	-0.00358053
31747	-0.000934964	-0.00395647
31786	-0.00101126	-0.00377549
31825	-0.000973113	-0.00381848
31864	-0.000858668	-0.00265367
31903	-0.00104941	-0.00301414
31942	-0.00091589	-0.00270948
31981	-0.000896816	-0.00258668
32020	-0.000973113	-0.00144321
32059	-0.00103033	-0.00127519
32098	-0.000877742	-0.00141631
32137	-0.000858668	-0.00109598
32176	-0.00091589	-0.000583733
32215	-0.000973113	0.000231858
32254	-0.000954038	3.19428e-06
32293	-0.000877742	1.65694e-05
32332	-0.000877742	0.000189649
32371	-0.000839594	0.00168956
32410	-0.000801446	0.00109894
32449	-0.000934964	0.00120822
32488	-0.000954038	0.00130313
32527	-0.000934964	0.00243648
32566	-0.000973113	0.00246708
32605	-0.000896816	0.00255495
32644	-0.000877742	0.00232559
32683	-0.000839594	0.00275997
32722	-0.000896816	0.00350187
32761	-0.000934964	0.00315364
32800	-0.000973113	0.00327326
32839	-0.000782372	0.00338533
32878	-0.000992187	0.00470985
32917	-0.000954038	0.0043018
32956	-0.000858668	0.00451884
32995	-0.00091589	0.00455949
33034	-0.000973113	0.00564151
33073	-0.000992187	0.00570746
33112	-0.00101126	0.00575087
33151	-0.000782372	0.00596678
33190	-0.000973113	0.00641641
33229	-0.00091589	0.00722298
33268	-0.00091589	0.00690202
33307	-0.000877742	0.0070485
33346	-0.000782372	0.00699747
33385	-0.000992187	0.0080155
33424	-0.00108756	0.00752482
33463	-0.000992187	0.00784674
33502	-0.000973113	0.00775587
33541	-0.000877742	0.00883821
33580	-0.00103033	0.00869836
33619	-0.000934964	0.00882524
33658	-0.00082052	0.00892834
33697	-0.000992187	0.00947306
33736	-0.000782372	0.00986982
33775	-0.000896816	0.00959556
33814	-0.000877742	0.00973636
33853	-0.000954038	0.00981596
33892	-0.000896816	0.0108037
33931	-0.00091589	0.0102414
33970	-0.000992187	0.0104396
34009	-0.000954038	0.0104075
34048	-0.000858668	0.0113084
34087	-0.000782372	0.011093
34126	-0.00091589	0.0109877
34165	-0.00103033	0.0109843
34204	-0.000877742	0.0114423
34243	-0.000896816	0.0118443
34282	-0.000954038	0.0116133
34321	-0.00106848	0.0117479
34360	-0.000992187	0.0118563
34399	-0.000934964	0.0126966
34438	-0.00106848	0.0121857
34477	-0.00101126	0.0121925
34516	-0.000992187	0.0119572
34555	-0.000973113	0.0128525
34594	-0.000858668	0.0124959
34633	-0.000934964	0.0124195
34672	-0.000992187	0.012567
34711	-0.000954038	0.0131894
34750	-0.000973113	0.0134894
34789	-0.000763297	0.0133169
34828	-0.000782372	0.0135351
34867	-0.000954038	0.0135559
34906	-0.000877742	0.0144293
34945	-0.000896816	0.0139428
34984	-0.000839594	0.0140659
35023	-0.00103033	0.0140069
35062	-0.000973113	0.0148459
35101	-0.000954038	0.0146364
35140	-0.000954038	0.0145124
35179	-0.00091589	0.014468
35218	-0.00106848	0.0149841
35257	-0.000954038	0.0151863
35296	-0.000973113	0.0149936
35335	-0.000973113	0.0148909
35374	-0.000934964	0.0150598
35413	-0.000973113	0.0158044
35452	-0.000896816	0.0154266
35491	-0.000877742	0.0155543
35530	-0.00101126	0.0155053
35569	-0.000973113	0.0161803
35608	-0.00082052	0.0158194
35647	-0.000934964	0.0159055
35686	-0.00103033	0.0156885
35725	-0.000954038	0.0161546
35764	-0.00106848	0.0162347
35803	-0.000858668	0.0159698
35842	-0.000896816	0.0159338
35881	-0.000954038	0.0161512
35920	-0.000973113	0.0167652
35959	-0.000992187	0.0162952
35998	-0.000992187	0.0164129
36037	-0.00103033	0.0162124
36076	-0.000934964	0.0171057
36115	-0.000954038	0.0166858
36154	-0.000973113	0.0167312
36193	-0.000992187	0.0165561
36232	-0.000934964	0.0171273
36271	-0.00103033	0.017142
36310	-0.000973113	0.0170139
36349	-0.00091589	0.017083
36388	-0.000839594	0.0172442
36427	-0.000934964	0.017852
36466	-0.00103033	0.0175288
36505	-0.000839594	0.0175647
36544	-0.000992187	0.0175372
36583	-0.000877742	0.0182722
36622	-0.00091589	0.0177622
36661	-0.000896816	0.0176517
36700	-0.000839594	0.0176663
36739	-0.000896816	0.0182691
36778	-0.00101126	0.0181719
36817	-0.000858668	0.0180748
36856	-0.000934964	0.0180255
36895	-0.000896816	0.0182008
36934	-0.000992187	0.0186898
36973	-0.000973113	0.0181463
37012	-0.000896816	0.0182331
37051	-0.000954038	0.0181077
37090	-0.000934964	0.0188014
37129	-0.000954038	0.018322
37168	-0.00101126	0.0183442
37207	-0.000839594	0.0181596
37246	-0.00091589	0.0187358
37285	-0.000877742	0.0184988
37324	-0.000782372	0.0184431
37363	-0.000973113	0.018333
37402	-0.000877742	0.0185718
37441	-0.000896816	0.0189777
37480	-0.000954038	0.0185827
37519	-0.00091589	0.0185908
37558	-0.00103033	0.018589
37597	-0.000954038	0.0192754
37636	-0.000954038	0.0187146
37675	-0.00106848	0.0186807
37714	-0.000934964	0.0186551
37753	-0.000992187	0.0191069
37792	-0.000934964	0.019032
37831	-0.000992187	0.0188155
37870	-0.000934964	0.0188036
37909	-0.000954038	0.0189487
37948	-0.000992187	0.0193159
37987	-0.000973113	0.019025
38026	-0.000877742	0.018944
38065	-0.000954038	0.018934
38104	-0.000934964	0.0195273
38143	-0.000954038	0.019127
38182	-0.000858668	0.019132
38221	-0.000896816	0.0190009
38260	-0.00110663	0.0195424
38299	-0.000801446	0.0193088
38338	-0.00082052	0.0192432
38377	-0.000896816	0.019637
38416	-0.00091589	0.0194082
38455	-0.000954038	0.0196041
38494	-0.00101126	0.0192592
38533	-0.000934964	0.0193083
38572	-0.000934964	0.0192736
38611	-0.00106848	0.0199098
38650	-0.000954038	0.0193918
38689	-0.000934964	0.0192677
38728	-0.00091589	0.019117
38767	-0.000954038	0.0196691
38806	-0.00101126	0.0195106
38845	-0.000934964	0.0193255
38884	-0.000858668	0.0192843
38923	-0.000992187	0.0194872
38962	-0.000973113	0.0195958
39001	-0.000896816	0.0194576
39040	-0.00082052	0.0194402
39079	-0.000992187	0.0194501
39118	-0.000934964	0.0199051
39157	-0.000934964	0.0195112
39196	-0.000858668	0.0195611
39235	-0.000839594	0.0193884
39274	-0.000934964	0.0200741
39313	-0.00108756	0.0196819
39352	-0.000934964	0.0195375
39391	-0.00091589	0.0193808
39430	-0.000839594	0.01973
39469	-0.00091589	0.0198265
39508	-0.00103033	0.0195064
39547	-0.00106848	0.0195023
39586	-0.000954038	0.0194714
39625	-2.00087	-40.5917
39664	-2.0008	-18.6851
39703	-2.00099	-12.2081
39742	-2.00097	-9.06019
39781	-2.00084	-7.31309
39820	-2.00097	-6.09711
39859	-2.00089	-5.2197
39898	-2.00093	-4.59606
39937	-2.00084	-4.12746
39976	-2.00087	-3.76368
40015	-2.00097	-3.43337
40054	-2.00089	-3.17571
40093	-2.00085	-2.96078
40132	-2.00078	-2.8109
40171	-2.0008	-2.63489
40210	-2.00087	-2.49814
40249	-2.00095	-2.37437
40288	-2.00084	-2.29527
40327	-2.00089	-2.19085
40366	-2.00085	-2.10452
40405	-2.0008	-2.0252
40444	-2.00101	-1.96795
40483	-2.00101	-1.91365
40522	-0.000858668	4.98361
40561	-0.000954038	1.36465
40600	-0.000839594	0.795899
40639	-0.000973113	0.594995
40678	-0.00082052	0.47924
40717	-0.000973113	0.415105
40756	-0.000877742	0.371174
40795	-0.000954038	0.345431
40834	-0.000954038	0.317799
40873	-0.00104941	0.297277
40912	-0.000934964	0.280661
40951	-0.000858668	0.269673
40990	-0.000973113	0.258101
41029	-0.00103033	0.245419
41068	-0.000839594	0.235854
41107	-0.000992187	0.227522
41146	-0.00082052	0.222858
41185	-0.000839594	0.212842
41224	-0.00091589	0.206032
41263	-0.000858668	0.199571
41302	-0.000877742	0.197412
41341	-0.000954038	0.190025
41380	-0.00091589	0.184562
41419	-0.000934964	0.179368
41458	-0.00091589	0.176928
41497	-0.00091589	0.173087
41536	-0.000934964	0.167989
41575	-0.00103033	0.164318
41614	-0.000973113	0.161078
41653	-0.00091589	0.160146
41692	-0.000992187	0.155058
41731	-0.000877742	0.151722
41770	-0.00110663	0.148772
41809	-0.000896816	0.148582
41848	-0.000858668	0.144659
41887	-0.000877742	0.141748
41926	-0.000839594	0.138978
41965	-0.000858668	0.13852
42004	-0.000973113	0.136423
42043	-0.000954038	0.133215
42082	-0.000934964	0.131214
42121	-0.000992187	0.129773
42160	-0.000934964	0.129606
42199	-0.00104941	0.126269
42238	-0.000896816	0.124563
42277	-0.000858668	0.122783
42316	-0.000858668	0.123431
42355	-0.000877742	0.120532
42394	-0.00082052	0.118865
42433	-0.000973113	0.117335
42472	-0.000877742	0.117252
42511	-0.000896816	0.116149
42550	-0.00104941	0.114046
42589	-0.000896816	0.112817
42628	-0.000877742	0.111922
42667	-0.000992187	0.112193
42706	-0.00104941	0.109756
42745	-0.000896816	0.108916
42784	-0.00103033	0.107582
42823	-0.00091589	0.108563
42862	-0.00091589	0.106446
42901	-0.000858668	0.105352
42940	-0.000954038	0.104119
42979	-0.000896816	0.104871
43018	-0.00091589	0.103636
43057	-0.00091589	0.102202
43096	-0.000877742	0.101295
43135	-0.000744223	0.100997
43174	-0.000858668	0.10123
43213	1.49949	33.6709
43252	1.49936	13.1216
43291	1.49951	9.1573
43330	1.49949	7.43568
43369	1.49947	6.5521
43408	1.49955	6.01502
43447	1.49938	5.63789
43486	1.4994	5.29003
43525	1.49941	4.97901
43564	1.49938	4.78561
43603	1.49945	4.58644
43642	1.49949	4.35671
43681	1.49945	4.07599
43720	1.49961	3.89306
43759	1.49961	3.59232
43798	1.49953	3.42129
43837	1.49951	3.23758
43876	1.49945	3.0994
43915	1.49943	3.00049
43954	1.49945	2.88398
43993	1.49953	2.76071
44032	1.49961	2.56986
44071	1.49953	2.53482
44110	1.49947	2.4582
44149	1.49957	2.39545
44188	1.49957	2.20417
44227	1.49953	2.18634
44266	1.49966	2.17844
44305	1.49947	2.18339
44344	1.49953	2.09819
44383	1.49945	2.01476
44422	1.49953	2.0502
44461	1.49951	2.06575
44500	1.49966	2.06942
44539	1.4994	1.93393
44578	1.49945	1.95877
44617	1.49964	1.97692
44656	1.49953	2.00644
44695	1.49955	1.90738
44734	1.49945	1.88184
44773	1.49955	1.89989
44812	1.49934	1.92456
44851	1.49951	1.89111
44890	1.49955	1.81403
44929	1.49945	1.83323
44968	1.49953	1.84432
45007	-0.000954038	-4.50773
45046	-0.00091589	-0.445157
45085	-0.000973113	-0.197578
45124	-0.000896816	-0.117532
45163	-0.00103033	-0.079544
45202	-0.000934964	-0.0578531
45241	-0.000896816	-0.0442057
45280	-0.000992187	-0.0347747
45319	-0.00103033	-0.0277479
45358	-0.00104941	-0.0219777
45397	-0.000782372	-0.0183353
45436	-0.000973113	-0.0149287
45475	-0.000801446	-0.0123872
45514	-0.000934964	-0.00927155
45553	-0.00103033	-0.0078618
45592	-0.00101126	-0.00637332
45631	-0.000992187	-0.00507096
45670	-0.000896816	-0.00349776
45709	-0.000896816	-0.00221985
45748	-0.000896816	-0.00158894
45787	-0.00103033	-0.000773914
45826	-0.000992187	0.000166974
45865	-0.000877742	0.0016158
45904	-0.000839594	0.00167199
45943	-0.000839594	0.00236923
45982	-0.000839594	0.00276671
46021	-0.000954038	0.00395873
46060	-0.000744223	0.00401882
46099	-0.000839594	0.00440111
46138	-0.00103033	0.00480316
46177	-0.000954038	0.00565919
46216	-0.000992187	0.00614058
46255	-0.00091589	0.00624389
46294	-0.000992187	0.00648467
46333	-0.000992187	0.00689857
46372	-0.000896816	0.00764091
46411	-0.00104941	0.00747142
46450	-0.00108756	0.00779571
46489	-0.00091589	0.00799505
46528	-0.00082052	0.00892494
46567	-0.000858668	0.00868021
46606	-0.000896816	0.00888394
46645	-0.000839594	0.00902691
46684	-0.000801446	0.009575
46723	-0.000896816	0.00967807
46762	-0.000896816	0.00966723
46801	-0.000973113	0.00978819
46840	-0.000973113	0.0100621
46879	-0.000934964	0.0106403
46918	-0.00101126	0.0103762
46957	-0.00091589	0.0105849
46996	-0.000992187	0.0105386
47035	-0.00091589	0.0113702
47074	-0.00091589	0.0110128
47113	-0.000896816	0.0111838
47152	-0.000934964	0.0111852
47191	-0.000973113	0.0117015
47230	-0.000725149	0.0117879
47269	-0.000954038	0.0116097
47308	-0.00104941	0.0116681
47347	-0.000992187	0.0118638
47386	-0.000973113	0.0122926
47425	-0.000934964	0.0118879
47464	-0.000839594	0.0121207
47503	-0.000858668	0.0120784
47542	-0.000973113	0.0127475
47581	-0.00091589	0.0124288
47620	-0.000973113	0.0124539
47659	-0.000973113	0.0125962
47698	-0.00103033	0.0129442
47737	-0.000877742	0.0128102
47776	-0.000896816	0.0126661
47815	-0.000954038	0.0128019
47854	-0.000839594	0.0129831
47893	-0.000934964	0.0133243
47932	-0.000934964	0.013046
47971	-0.000973113	0.0131426
48010	-0.00091589	0.0130653
48049	-0.000954038	0.0136976
48088	-0.00082052	0.013249
48127	-0.000896816	0.0132168
48166	-0.000858668	0.0131616
48205	-0.000934964	0.0137131
48244	-0.00101126	0.0136178
48283	-0.000839594	0.0134701
48322	-0.000896816	0.0134353
48361	-0.000877742	0.0137818
48400	-0.000896816	0.0139722
48439	-0.00082052	0.0136604
48478	-0.000934964	0.0137152
48517	-0.000992187	0.0137901
48556	-0.000954038	0.0143542
48595	-0.000877742	0.0140103
48634	-0.000954038	0.013999
48673	-0.000934964	0.0140286
48712	-0.00104941	0.014468
48751	-0.000782372	0.0141289
48790	-0.000992187	0.0140348
48829	-0.000954038	0.0142582
48868	-0.000954038	0.0143381
48907	-0.00091589	0.01442
48946	-0.00082052	0.0143042
48985	-0.000934964	0.0142072
49024	-0.000973113	0.0142754
49063	-0.000954038	0.014748
49102	-0.000934964	0.0143343
49141	-0.000839594	0.0143377
49180	-0.000992187	0.0142864
49219	-0.000896816	0.014642
49258	-0.000934964	0.014462
49297	-0.000801446	0.0144555
49336	-0.000896816	0.0144204
49375	-0.000934964	0.0146623
49414	-0.000934964	0.0147594
49453	-0.000992187	0.0145011
49492	-0.00104941	0.0145532
49531	-0.000877742	0.014561
49570	-0.00104941	0.0150288
49609	-0.000973113	0.014551
49648	-0.00104941	0.0145672
49687	-0.00110663	0.0145919
49726	-0.000934964	0.0151148
49765	-0.000896816	0.0148063
49804	-0.000896816	0.0147591
49843	-0.000896816	0.014778
49882	-0.000973113	0.0150037
49921	-0.000877742	0.0150464
49960	-0.000896816	0.0146993
49999	-0.00082052	0.0147608
50038	-0.00091589	0.0148243
50077	-0.000858668	0.0152937
50116	-0.00104941	0.014902
50155	-0.000801446	0.0149931
50194	-0.000973113	0.0149103
50233	-0.000839594	0.0151488
50272	-0.00101126	0.0149885
50311	-0.000839594	0.0148663
50350	-0.000973113	0.0148555
50389	-0.000896816	0.0151333
50428	-0.000896816	0.0151208
50467	-0.000839594	0.0149632
50506	-0.000896816	0.0149783
50545	-0.000973113	0.0150003
50584	-0.000782372	0.0153213
50623	-0.000934964	0.0150019
50662	-0.000877742	0.0149743
50701	-0.000839594	0.0149755
50740	-0.000877742	0.0153229
50779	-0.000934964	0.0150862
50818	-0.000858668	0.0150234
50857	-0.00091589	0.0149476
50896	-0.00091589	0.01519
50935	-0.00091589	0.0151393
50974	-0.00101126	0.0149533
51013	-0.000973113	0.0149909
51052	-0.000954038	0.0150357
51091	-0.000954038	0.0153613
51130	-0.000973113	0.0148919
51169	-0.00091589	0.0150268
51208	-0.00082052	0.0148369
51247	-0.000896816	0.0152746
51286	-0.00101126	0.0149639
51325	-0.000934964	0.0149098
51364	-0.00101126	0.0148052
51403	-0.000954038	0.0151368
51442	-0.000934964	0.0150527
51481	-0.00106848	0.0148403
51520	-0.000858668	0.0149925
51559	-0.000973113	0.0148914
51598	-0.000992187	0.0151579
51637	-0.000992187	0.0148571
51676	-0.000973113	0.0148001
51715	-0.000877742	0.0148175
51754	-0.000896816	0.015073
51793	-0.000858668	0.0146277
51832	-0.000896816	0.0146997
51871	-0.000877742	0.0146687
51910	-0.000954038	0.0149176
51949	-0.00091589	0.0148462
51988	-0.000877742	0.0147147
52027	-0.000992187	0.0146517
52066	-0.000954038	0.0147887
52105	-0.000877742	0.0149532
52144	-0.000858668	0.0146706
52183	-0.00101126	0.0147719
52222	-0.000934964	0.0147613
52261	-0.00091589	0.0151639
52300	-0.000973113	0.0147078
52339	-0.000877742	0.0146949
52378	-0.000782372	0.0146882
52417	-0.000992187	0.0150193
52456	-0.000801446	0.0147657
52495	-0.000858668	0.0147071
52534	-0.000954038	0.0147815
52573	-0.000725149	0.0147678
52612	-0.00091589	0.0149346
52651	-0.000877742	0.0147495
52690	-0.000877742	0.0146806
52729	-0.000877742	0.0145848
52768	-0.000896816	0.0150494
52807	-0.000973113	0.0146731
52846	-0.000858668	0.0146422
52885	-0.000896816	0.0145522
52924	-0.00091589	0.0148892
52963	-0.00091589	0.014648
53002	-0.00082052	0.0145979
53041	-0.000954038	0.0145175
53080	-0.000992187	0.0146139
53119	-0.000934964	0.0148412
53158	-0.000801446	0.0145463
53197	-0.000973113	0.0145833
53236	-0.000954038	0.0145214
53275	-0.000877742	0.0148885
53314	-0.00091589	0.0144998
53353	-0.00082052	0.0145073
53392	-0.00091589	0.0144699
53431	-0.000858668	0.0146569
53470	-0.00101126	0.0145089
53509	-0.000992187	0.0143459
53548	-0.000992187	0.0143723
53587	-0.000801446	0.014541
53626	-0.000858668	0.0146534
53665	-0.00091589	0.0144146
53704	-0.000782372	0.0144016
53743	-0.00091589	0.0143242
53782	-0.000934964	0.0146454
53821	-0.00104941	0.0143256
53860	-0.000973113	0.0143702
53899	-0.000877742	0.0142752
53938	-0.000896816	0.0145503
53977	-0.00091589	0.0143107
54016	-2.00084	-43.4548
54055	-2.00087	-14.6849
54094	-2.00097	-9.15824
54133	-2.00093	-6.84692
54172	-2.00089	-5.44974
54211	-2.00087	-4.59595
54250	-2.00078	-3.98655
54289	-2.00097	-3.58913
54328	-2.00085	-3.23144
54367	-2.00082	-2.96405
54406	-2.00087	-2.74374
54445	-2.00097	-2.58861
54484	-2.00101	-2.43656
54523	-2.00099	-2.30476
54562	-2.00097	-2.19354
54601	-2.00099	-2.10435
54640	-2.00101	-2.03234
54679	-2.00089	-1.94724
54718	-2.00091	-1.88025
54757	-2.00093	-1.81816
54796	-2.00078	-1.78175
54835	-2.00082	-1.72056
54874	-2.00078	-1.67479
54913	-0.000954038	9.86015
54952	-0.00103033	1.60251
54991	-0.000877742	0.842172
55030	-0.000877742	0.584731
55069	-0.000992187	0.458467
55108	-0.000877742	0.38812
55147	-0.000973113	0.342925
55186	-0.000934964	0.306883
55225	-0.000992187	0.281836
55264	-0.000973113	0.261932
55303	-0.000954038	0.248946
55342	-0.00101126	0.233259
55381	-0.000877742	0.221473
55420	-0.00103033	0.211126
55459	-0.000954038	0.204822
55498	-0.000934964	0.195762
55537	-0.000992187	0.187931
55576	-0.00103033	0.181303
55615	-0.00091589	0.175952
55654	-0.000992187	0.17136
55693	-0.000954038	0.16488
55732	-0.000992187	0.160089
55771	-0.000954038	0.155648
55810	-0.000896816	0.153323
55849	-0.00103033	0.147855
55888	-0.000992187	0.144187
55927	-0.00103033	0.140204
55966	-0.00082052	0.138971
56005	-0.00082052	0.13466
56044	-0.000858668	0.131423
56083	-0.000858668	0.128396
56122	-0.000896816	0.126528
56161	-0.000896816	0.124449
56200	-0.00106848	0.121263
56239	-0.000973113	0.118864
56278	-0.000934964	0.116751
56317	-0.000954038	0.116073
56356	-0.000954038	0.112762
56395	-0.000934964	0.110772
56434	-0.00108756	0.108715
56473	-0.000973113	0.108132
56512	-0.000973113	0.105649
56551	-0.000954038	0.103664
56590	-0.000934964	0.101898
56629	-0.000934964	0.101073
56668	-0.00091589	0.0996727
56707	-0.00101126	0.0977091
56746	-0.00104941	0.0963104
56785	-0.00103033	0.0949969
56824	-0.00101126	0.0946999
56863	-0.000801446	0.0923567
56902	-0.000896816	0.0911724
56941	-0.000934964	0.0896288
56980	-0.000954038	0.0896126
57019	-0.000896816	0.0877247
57058	-0.00091589	0.0864105
57097	-0.000954038	0.0851648
57136	-0.00091589	0.084688
57175	-0.000973113	0.0836774
57214	-0.000934964	0.0823373
57253	-0.00091589	0.0813059
57292	-0.000954038	0.0804366
57331	-0.00106848	0.0802456
57370	-0.000858668	0.0787724
57409	-0.00091589	0.0779039
57448	-0.000954038	0.076898
57487	-0.00091589	0.076924
57526	-0.00091589	0.0754507
57565	-0.000839594	0.0746561
57600	-0.00103033	0.074615