File: Data_11_Experiment/CA_001_C01.txt
time/s	Ewe/V	<I>/mA
1	1.49929	169.071
40	1.49927	20.3574
79	1.49942	12.0991
118	1.49919	8.69454
157	1.49916	6.90037
196	1.49937	5.77701
235	1.49916	4.99781
274	1.49925	4.4175
313	1.49919	3.98376
352	1.49919	3.67844
391	1.49929	3.42495
430	1.49935	3.20394
469	1.49925	3.00432
508	1.49929	2.87207
547	1.49942	2.75479
586	1.49939	2.6421
625	1.49927	2.53312
664	1.49919	2.44542
703	1.49942	2.39377
742	1.49931	2.32863
781	1.49925	2.2662
820	1.49916	2.18165
859	1.49925	2.16155
898	1.49921	2.12369
937	1.49931	2.08307
976	1.49921	2.01418
1015	1.49923	1.99494
1054	1.49937	1.97983
1093	1.49927	1.95004
1132	1.49933	1.9084
1171	1.49929	1.86335
1210	1.49935	1.86976
1249	1.49916	1.85038
1288	1.49908	1.82779
1327	1.49935	1.76925
1366	1.49923	1.77969
1405	1.49919	1.77499
1444	1.4994	1.76271
1483	1.49923	1.71156
1522	1.49931	1.7031
1561	1.49935	1.71584
1600	1.49933	1.70671
1639	1.49918	1.67712
1678	1.49931	1.63998
1717	1.49925	1.66015
1756	1.49931	1.65837
1795	1.4994	1.64848
1833.95	-0.00104063	-0.532489
1872.95	-0.00105971	-0.10123
1911.95	-0.00119323	-0.0230562
1950.95	-0.00104063	0.000694413
1989.95	-0.00105971	0.0113522
2028.95	-0.000964338	0.0155718
2067.95	-0.00100249	0.0173201
2106.95	-0.00092619	0.0185697
2145.95	-0.00102156	0.0195922
2184.95	-0.00100249	0.0198837
2223.95	-0.00107878	0.0198392
2262.95	-0.00107878	0.0198093
2301.95	-0.00105971	0.0198828
2340.95	-0.00107878	0.02015
2379.95	-0.000964338	0.0198437
2418.95	-0.000964338	0.019758
2457.95	-0.000945264	0.0195238
2496.95	-0.00111693	0.0196231
2535.95	-0.00111693	0.0190894
2574.95	-0.00111693	0.019006
2613.95	-0.00109786	0.0187644
2652.95	-0.000983412	0.0187283
2691.95	-0.00102156	0.0183813
2730.95	-0.000964338	0.0181195
2769.95	-0.00104063	0.0179485
2808.95	-0.00113601	0.0179972
2847.95	-0.00109786	0.0178767
2886.95	-0.00111693	0.0175173
2925.95	-0.00109786	0.017522
2964.95	-0.000945264	0.0174282
3003.95	-0.00111693	0.0173536
3042.95	-0.00104063	0.0173293
3081.95	-0.00092619	0.0169599
3120.95	-0.000945264	0.0168729
3159.95	-0.00109786	0.0168674
3198.95	-0.00105971	0.0166034
3237.95	-0.000983412	0.0163316
3276.95	-0.00104063	0.0164573
3315.95	-0.00105971	0.0163736
3354.95	-0.000964338	0.0163282
3393.95	-0.00115508	0.0158313
3432.95	-0.000983412	0.0157945
3471.95	-0.00092619	0.0157037
3510.95	-0.00104063	0.0157674
3549.95	-0.00113601	0.0154962
3588.95	-0.00083082	0.0155032
3627.95	-0.00104063	0.0154112
3666.95	-0.00105971	0.0154617
3705.95	-0.00113601	0.0151893
3744.95	-0.00092619	0.0149822
3783.95	-0.00092619	0.0149771
3822.95	-0.000945264	0.0148531
3861.95	-0.00102156	0.0148513
3900.95	-0.000945264	0.0147827
3939.95	-0.00100249	0.0147233
3978.95	-0.00105971	0.0145167
4017.95	-0.00104063	0.0146033
4056.95	-0.000964338	0.0144784
4095.95	-0.000945264	0.0145452
4134.95	-0.00104063	0.0142684
4173.95	-0.000907116	0.0144242
4212.95	-0.00105971	0.0143394
4251.95	-0.00100249	0.0142941
4290.95	-0.000983412	0.0141092
4329.95	-0.000888042	0.0141266
4368.95	-0.00115508	0.0140394
4407.95	-0.000868968	0.0140308
4446.95	-0.00111693	0.0140061
4485.95	-0.000983412	0.0138463
4524.95	-0.00102156	0.0137524
4563.95	-0.000983412	0.0137181
4602.95	-0.000964338	0.0137661
4641.95	-0.00102156	0.0136234
4680.95	-0.000983412	0.0136776
4719.95	-0.00102156	0.0135201
4758.95	-0.000849894	0.0135204
4797.95	-0.00102156	0.0133935
4836.95	-0.00107878	0.0134425
4875.95	-0.00100249	0.0134372
4914.95	-0.00107878	0.0132566
4953.95	-0.000964338	0.0131298
4992.95	-0.00104063	0.0130275
5031.95	-0.000964338	0.0132768
5070.95	-0.00105971	0.0131253
5109.95	-0.00109786	0.0128995
5148.95	-0.00092619	0.0127843
5187.95	-0.00100249	0.013143
5226.95	-0.00102156	0.0129342
5265.95	-0.00102156	0.0127658
5304.95	-0.00105971	0.0128118
5343.95	-0.00109786	0.0128187
5382.95	-0.00100249	0.0127068
5421.95	-0.000964338	0.0125597
5460.95	-0.00104063	0.012642
5499.95	-0.00102156	0.0125979
5538.95	-0.000868968	0.0125935
5577.95	-0.00104063	0.0124435
5616.95	-0.000945264	0.0123929
5655.95	-0.000945264	0.0124699
5694.95	-0.000964338	0.0124516
5733.95	-0.00100249	0.0125208
5772.95	-0.00104063	0.0123853
5811.95	-0.000945264	0.0124985
5850.95	-0.00100249	0.012421
5889.95	-0.00109786	0.0124216
5928.95	-0.00105971	0.0122336
5967.95	-0.00102156	0.0122302
6006.95	-0.000964338	0.012143
6045.95	-0.00104063	0.0122365
6084.95	-0.000964338	0.0121764
6123.95	-0.00100249	0.0121534
6162.95	-0.00113601	0.0120818
6201.95	-0.00111693	0.0123695
6240.95	-0.00117415	0.0120224
6279.95	-0.00092619	0.0121153
6318.95	-0.00109786	0.0118026
6357.95	-0.00100249	0.0119575
6396.95	-0.00100249	0.0120282
6435.95	-0.00100249	0.011859
6474.95	-0.00107878	0.0117608
6513.95	-0.00104063	0.0118289
6552.95	-0.00100249	0.0119386
6591.95	-0.00105971	0.0118639
6630.95	-0.000945264	0.011814
6669.95	-0.00102156	0.0115947
6708.95	-0.000907116	0.0117489
6747.95	-0.00102156	0.0116175
6786.95	-0.00102156	0.0115916
6825.95	-0.00105971	0.0116077
6864.95	-0.00104063	0.0115102
6903.95	-0.00104063	0.0115462
6942.95	-0.00107878	0.0114125
6981.95	-0.000983412	0.0115861
7020.95	-0.000964338	0.0114214
7059.95	-0.000964338	0.0115703
7098.95	-0.00107878	0.0114117
7137.95	-0.00109786	0.0116381
7176.95	-0.00115508	0.0114177
7215.95	-0.00100249	0.0114311
7254.95	-0.00100249	0.0113901
7293.95	-0.00092619	0.011255
7332.95	-0.00105971	0.011253
7371.95	-0.000964338	0.0113298
7410.95	-0.00102156	0.0113144
7449.95	-0.00092619	0.0111713
7488.95	-0.00111693	0.0111884
7527.95	-0.00111693	0.011064
7566.95	-0.00107878	0.0113102
7605.95	-0.00102156	0.0111877
7644.95	-0.00100249	0.0111562
7683.95	-0.00092619	0.0111079
7722.95	-0.00113601	0.0110722
7761.95	-0.00104063	0.0109913
7800.95	-0.00100249	0.0109866
7839.95	-0.000945264	0.0109034
7878.95	-0.00111693	0.0110148
7917.95	-0.00104063	0.0110291
7956.95	-0.00107878	0.0108219
7995.95	-0.00105971	0.0110037
8034.95	-0.00104063	0.0108481
8073.95	-0.00104063	0.0109851
8112.95	-0.000907116	0.0108171
8151.95	-0.00109786	0.0107467
8190.95	-0.00100249	0.0106771
8229.95	-0.00109786	0.0107898
8268.95	-0.00100249	0.0107536
8307.95	-0.00109786	0.0107116
8346.95	-0.00102156	0.0107057
8385.95	-0.00104063	0.0106985
8424.95	-0.00105971	0.0106796
8463.95	-0.00100249	0.010645
8502.95	-0.00100249	0.0105693
8541.95	-0.00113601	0.0106451
8580.95	-0.00100249	0.0106926
8619.95	-0.00104063	0.0105281
8658.95	-0.000945264	0.0104058
8697.95	-0.000983412	0.0104947
8736.95	-0.00107878	0.0105795
8775.95	-0.000964338	0.0105069
8814.95	-0.00109786	0.0105278
8853.95	-0.00105971	0.010472
8892.95	-0.000945264	0.0105387
8931.95	-0.000964338	0.0105376
8970.95	-0.00113601	0.0104305
9009.95	-0.00107878	0.0103583
9048.95	-0.000983412	0.010354
9087.95	-0.00111693	0.010351
9126.95	-0.00102156	0.0104115
9165.95	-0.00102156	0.0104091
9204.95	-0.00119323	0.0103241
9243.95	-0.00102156	0.0103756
9282.95	-0.00105971	0.0103573
9321.95	-0.00113601	0.0101982
9360.95	-0.0012123	0.0101563
9399.95	-0.00107878	0.0102145
9438.95	-0.00111693	0.0101615
9477.95	-0.00102156	0.0102549
9516.95	-0.00109786	0.0102711
9555.95	-0.00102156	0.0102322
9594.95	-0.00107878	0.0101848
9633.95	-0.000888042	0.010128
9672.95	-0.000907116	0.0100967
9711.95	-0.00111693	0.0101664
9750.95	-0.00092619	0.0101779
9789.95	-0.00105971	0.0101641
9828.95	-0.00100249	0.00993073
9867.95	-0.000983412	0.0100205
9906.95	-0.000888042	0.0102262
9945.95	-0.00111693	0.0100723
9984.95	-0.00115508	0.0100116
10024	-0.000945264	0.0100368
10063	-0.00123138	0.00997142
10102	-0.00104063	0.00997915
10141	-0.00113601	0.00995968
10180	-0.00105971	0.00990909
10219	-0.00104063	0.00998252
10258	-0.00104063	0.0100159
10297	-0.0012123	0.00973862
10336	-0.00092619	0.00995609
10375	-0.00109786	0.00973106
10414	-0.00105971	0.00986106
10453	-0.00102156	0.00975149
10492	-0.00107878	0.00982446
10531	-0.000983412	0.00984893
10570	-0.00100249	0.00982878
10609	-0.000964338	0.00981895
10648	-0.00104063	0.00963267
10687	-0.00105971	0.00967833
10726	-0.00102156	0.00962637
10765	-0.00100249	0.00972703
10804	-2.00083	-121.535
10843	-2.00094	-14.0344
10882	-2.0009	-8.21056
10921	-2.00079	-6.33717
10960	-2.00088	-5.82074
10999	-2.00067	-4.95952
11038	-2.00085	-4.65506
11077	-2.00092	-4.60701
11116	-2.00073	-4.37169
11155	-2.00077	-4.28631
11194	-2.00075	-4.2194
11233	-2.00081	-4.21294
11272	-2.00079	-4.18922
11311	-2.00098	-4.16005
11350	-2.00094	-4.35866
11389	-2.00077	-4.17748
11428	-2.00085	-4.19444
11467	-2.0009	-4.40121
11506	-2.00081	-4.29342
11545	-2.00092	-4.34134
11584	-2.00085	-4.48705
11623	-2.00079	-4.47017
11662	-2.00086	-4.51636
11701	-0.000849894	206.896
11740	-0.00100249	1.81764
11779	-0.00100249	0.919366
11818	-0.00109786	0.640739
11857	-0.00100249	0.502446
11896	-0.00111693	0.419485
11935	-0.000888042	0.367926
11974	-0.000888042	0.327438
12013	-0.000983412	0.29818
12052	-0.00105971	0.275893
12091	-0.000945264	0.258495
12130	-0.00102156	0.242852
12169	-0.00107878	0.228412
12208	-0.00104063	0.215477
12247	-0.000983412	0.204724
12286	-0.00105971	0.194449
12325	-0.00109786	0.18431
12364	-0.00105971	0.175669
12403	-0.000945264	0.167755
12442	-0.00107878	0.160744
12481	-0.00102156	0.153869
12520	-0.00104063	0.147926
12559	-0.000983412	0.142422
12598	-0.00102156	0.13751
12637	-0.000983412	0.132674
12676	-0.000964338	0.128042
12715	-0.00105971	0.124001
12754	-0.00105971	0.119878
12793	-0.000849894	0.116674
12832	-0.000983412	0.113306
12871	-0.00092619	0.109976
12910	-0.00092619	0.10719
12949	-0.00107878	0.104536
12988	-0.00113601	0.10203
13027	-0.00109786	0.0994859
13066	-0.000983412	0.0971514
13105	-0.00102156	0.0952678
13144	-0.00105971	0.0930941
13183	-0.00092619	0.0911737
13222	-0.000964338	0.0891292
13261	-0.00105971	0.0875273
13300	-0.000945264	0.0857376
13339	-0.00115508	0.0838891
13378	-0.00104063	0.0824349
13417	-0.000983412	0.0809162
13456	-0.000964338	0.079692
13495	-0.00115508	0.078217
13534	-0.00123138	0.076673
13573	-0.00105971	0.0755483
13612	-0.000983412	0.0743944
13651	-0.000945264	0.0733581
13690	-0.00109786	0.0719852
13729	-0.00105971	0.0708111
13768	-0.00100249	0.0697411
13807	-0.00107878	0.0687629
13846	-0.000983412	0.0676756
13885	-0.00104063	0.066742
13924	-0.000983412	0.0657373
13963	-0.00113601	0.0649634
14002	-0.00107878	0.0640291
14041	-0.00109786	0.0630439
14080	-0.000945264	0.0622244
14119	-0.00104063	0.0614756
14158	-0.00100249	0.060727
14197	-0.000964338	0.0598498
14236	-0.00104063	0.0589915
14275	-0.00107878	0.0583819
14314	-0.00092619	0.0577317
14353	-0.00100249	0.0569051
14392	-0.00111693	0.0562767
14431	1.49921	19.2154
14470	1.49923	9.75071
14509	1.49925	6.86937
14548	1.49931	5.46728
14587	1.49933	4.61087
14626	1.49927	4.01486
14665	1.49931	3.62104
14704	1.49933	3.31173
14743	1.49925	3.0594
14782	1.49935	2.85476
14821	1.49933	2.67944
14860	1.49942	2.57509
14899	1.49933	2.46831
14938	1.4994	2.37472
14977	1.49931	2.25932
15016	1.49939	2.21767
15055	1.49927	2.16527
15094	1.49931	2.11131
15133	1.49935	2.03578
15172	1.49927	1.99195
15211	1.49923	1.97864
15250	1.49929	1.94701
15289	1.49931	1.9062
15328	1.49942	1.841
15367	1.4995	1.84955
15406	1.49912	1.83524
15445	1.49914	1.81339
15484	1.49933	1.74608
15523	1.49923	1.74642
15562	1.49927	1.74797
15601	1.49952	1.73389
15640	1.49931	1.68836
15679	1.49935	1.66341
15718	1.49912	1.68284
15757	1.49927	1.67858
15796	1.49916	1.65742
15835	1.49935	1.60478
15874	1.4994	1.62463
15913	1.49923	1.62709
15952	1.49927	1.62283
15991	1.49937	1.56949
16030	1.49933	1.57156
16069	1.49935	1.58656
16108	1.49933	1.5873
16147	1.49925	1.5572
16186	1.49927	1.53041
16225	-0.00100249	-1.01443
16264	-0.000964338	-0.216981
16303	-0.00102156	-0.0860722
16342	-0.00111693	-0.0420098
16381	-0.00102156	-0.0215287
16420	-0.00113601	-0.0102643
16459	-0.000964338	-0.00366078
16498	-0.00104063	0.00110882
16537	-0.00102156	0.00413069
16576	-0.000945264	0.00625716
16615	-0.00102156	0.00749755
16654	-0.000907116	0.00909829
16693	-0.00109786	0.0099286
16732	-0.00100249	0.0105836
16771	-0.00111693	0.0110986
16810	-0.00109786	0.0117475
16849	-0.00111693	0.0119463
16888	-0.00102156	0.0121311
16927	-0.00092619	0.0123832
16966	-0.00100249	0.0123192
17005	-0.000983412	0.0125332
17044	-0.00104063	0.0126686
17083	-0.000792671	0.0126845
17122	-0.000964338	0.012553
17161	-0.00105971	0.0129858
17200	-0.00109786	0.012822
17239	-0.00111693	0.0129447
17278	-0.00104063	0.0128819
17317	-0.00102156	0.012944
17356	-0.00100249	0.0130539
17395	-0.00104063	0.0129263
17434	-0.000907116	0.0126844
17473	-0.000868968	0.0126523
17512	-0.00102156	0.0125761
17551	-0.00092619	0.0127142
17590	-0.00107878	0.0124741
17629	-0.000983412	0.0125208
17668	-0.000907116	0.013213
17707	-0.00113601	0.0126217
17746	-0.000907116	0.0123974
17785	-0.00104063	0.0122591
17824	-0.00107878	0.012449
17863	-0.00117415	0.0124251
17902	-0.00092619	0.0123393
17941	-0.000964338	0.0123421
17980	-0.00100249	0.0122916
18019	-0.00113601	0.0123517
18058	-0.00092619	0.0121827
18097	-0.00102156	0.012297
18136	-0.000945264	0.0120512
18175	-0.00104063	0.0121043
18214	-0.00102156	0.0120731
18253	-0.000964338	0.0121009
18292	-0.00111693	0.0117967
18331	-0.000907116	0.0118247
18370	-0.000983412	0.0119327
18409	-0.00107878	0.0119337
18448	-0.000964338	0.0118286
18487	-0.00109786	0.0116029
18526	-0.00113601	0.0117725
18565	-0.000907116	0.0116037
18604	-0.000983412	0.0115334
18643	-0.00104063	0.0114361
18682	-0.00109786	0.0115352
18721	-0.000983412	0.0115698
18760	-0.00107878	0.0114814
18799	-0.000964338	0.011422
18838	-0.00107878	0.0114834
18877	-0.000983412	0.0114225
18916	-0.00111693	0.0111499
18955	-0.00109786	0.0112993
18994	-0.000983412	0.0113227
19033	-0.000868968	0.0114625
19072	-0.000964338	0.0111985
19111	-0.00107878	0.0111802
19150	-0.00107878	0.0111031
19189	-0.00107878	0.0113219
19228	-0.00104063	0.0110612
19267	-0.00123138	0.0110187
19306	-0.00115508	0.0108362
19345	-0.00104063	0.0110658
19384	-0.000983412	0.011108
19423	-0.00109786	0.0108815
19462	-0.00117415	0.010682
19501	-0.000945264	0.0108383
19540	-0.00092619	0.0108469
19579	-0.00119323	0.0107135
19618	-0.000888042	0.0106211
19657	-0.00100249	0.0106199
19696	-0.000907116	0.010862
19735	-0.00102156	0.010698
19774	-0.00092619	0.0105435
19813	-0.000983412	0.0104965
19852	-0.00115508	0.0107215
19891	-0.00100249	0.0106551
19930	-0.00104063	0.0105794
19969	-0.00100249	0.0105823
20008	-0.000945264	0.0104991
20047	-0.00109786	0.010564
20086	-0.000964338	0.0104895
20125	-0.00100249	0.010251
20164	-0.000888042	0.0105265
20203	-0.00117415	0.0104285
20242	-0.00109786	0.0105804
20281	-0.00100249	0.00995082
20320	-0.00100249	0.0103781
20359	-0.00109786	0.0106188
20398	-0.00107878	0.0102753
20437	-0.00102156	0.010315
20476	-0.000964338	0.0103176
20515	-0.00113601	0.0102518
20554	-0.000964338	0.0101863
20593	-0.00104063	0.0102108
20632	-0.00092619	0.0101215
20671	-0.000945264	0.0101361
20710	-0.00100249	0.010221
20749	-0.00117415	0.0100715
20788	-0.000983412	0.0100628
20827	-0.00104063	0.00982737
20866	-0.00111693	0.0101544
20905	-0.00105971	0.0099871
20944	-0.00105971	0.00991967
20983	-0.00102156	0.00989173
21022	-0.000964338	0.0099316
21061	-0.00105971	0.0100498
21100	-0.00100249	0.00979116
21139	-0.00107878	0.00991582
21178	-0.00105971	0.00971193
21217	-0.000964338	0.00987605
21256	-0.00105971	0.00969643
21295	-0.00111693	0.00961085
21334	-0.00105971	0.00958848
21373	-0.000945264	0.00982541
21412	-0.000964338	0.00958235
21451	-0.00105971	0.0094875
21490	-0.00092619	0.00954752
21529	-0.000868968	0.00969801
21568	-0.00111693	0.00958963
21607	-0.00107878	0.00953608
21646	-0.000907116	0.00949218
21685	-0.000964338	0.00926253
21724	-0.00102156	0.00950171
21763	-0.00107878	0.00947115
21802	-0.00102156	0.00939746
21841	-0.00107878	0.00931693
21880	-0.000964338	0.00928285
21919	-0.00107878	0.00927115
21958	-0.00100249	0.0093382
21997	-0.000983412	0.00928816
22036	-0.000964338	0.00938208
22075	-0.00113601	0.00939307
22114	-0.000907116	0.00920098
22153	-0.000945264	0.00934171
22192	-0.000964338	0.00910242
22231	-0.00104063	0.00934961
22270	-0.000983412	0.00906896
22309	-0.000983412	0.00926119
22348	-0.00100249	0.00906173
22387	-0.00105971	0.00939426
22426	-0.000964338	0.00932419
22465	-0.00109786	0.00914925
22504	-0.000983412	0.00915646
22543	-0.00109786	0.00908046
22582	-0.00105971	0.00917304
22621	-0.00107878	0.0091033
22660	-0.00113601	0.00895846
22699	-0.00109786	0.00905767
22738	-0.00100249	0.00901839
22777	-0.00102156	0.00900794
22816	-0.00102156	0.00905918
22855	-0.000983412	0.00888295
22894	-0.000964338	0.00914398
22933	-0.00100249	0.00897066
22972	-0.00123138	0.00897394
23011	-0.000964338	0.00889258
23050	-0.00105971	0.00895882
23089	-0.000983412	0.00898526
23128	-0.00104063	0.0089772
23167	-0.00113601	0.00879428
23206	-0.00104063	0.00893181
23245	-0.00102156	0.00898121
23284	-0.00107878	0.00881733
23323	-0.00105971	0.00867405
23362	-0.00100249	0.00891266
23401	-0.000888042	0.00882196
23440	-0.00111693	0.00868167
23479	-0.00115508	0.00874649
23518	-0.000983412	0.00876623
23557	-0.00100249	0.00886299
23596	-0.00105971	0.00887487
23635	-0.000983412	0.0086875
23674	-0.00100249	0.00871415
23713	-0.00100249	0.00846976
23752	-0.00102156	0.00878394
23791	-0.000964338	0.00865693
23830	-0.000983412	0.00863723
23869	-0.00115508	0.00864281
23908	-0.00100249	0.00870442
23947	-0.00115508	0.00867629
23986	-0.000907116	0.00858262
24025	-0.000964338	0.00864881
24064	-0.00109786	0.00861718
24103	-0.00109786	0.00875794
24142	-0.00105971	0.00855126
24181	-0.000983412	0.00858811
24220	-0.00100249	0.00857688
24259	-0.00104063	0.00839336
24298	-0.00109786	0.00841992
24337	-0.00104063	0.008697
24376	-0.00109786	0.0084252
24415	-0.00107878	0.00851941
24454	-0.00109786	0.00820285
24493	-0.000964338	0.0084556
24532	-0.00107878	0.00832755
24571	-0.000964338	0.0083913
24610	-0.00105971	0.00846682
24649	-0.00100249	0.00829152
24688	-0.000983412	0.00835418
24727	-0.00100249	0.00839951
24766	-0.00107878	0.00836789
24805	-0.000945264	0.00816577
24844	-0.000907116	0.00830485
24883	-0.00104063	0.00828771
24922	-0.00119323	0.00842866
24961	-0.000964338	0.00822358
25000	-0.00102156	0.00826902
25039	-0.00109786	0.00819892
25078	-0.00100249	0.00825154
25117	-0.000964338	0.00818226
25156	-0.00092619	0.00820966
25195	-0.00113601	0.00809395
25234	-2.00075	-14.1646
25273	-2.00092	-7.55568
25312	-2.00085	-5.78594
25351	-2.00081	-5.29281
25390	-2.00077	-4.70521
25429	-2.00088	-4.46916
25468	-2.00081	-4.64484
25507	-2.00075	-4.28852
25546	-2.00086	-4.23572
25585	-2.00079	-4.3333
25624	-2.0009	-4.27996
25663	-2.00088	-4.25441
25702	-2.00069	-4.27606
25741	-2.00086	-4.47838
25780	-2.00079	-4.39583
25819	-2.00092	-4.44156
25858	-2.00081	-4.89781
25897	-2.00077	-4.5781
25936	-2.00079	-4.63498
25975	-2.00075	-5.00724
26014	-2.00073	-4.80382
26053	-2.00081	-4.85946
26092	-2.00079	-4.93215
26131	-0.000945264	2.31609
26170	-0.00104063	0.952331
26209	-0.00107878	0.611375
26248	-0.000964338	0.455551
26287	-0.000907116	0.368268
26326	-0.00104063	0.311735
26365	-0.000983412	0.27074
26404	-0.00107878	0.240287
26443	-0.000964338	0.216645
26482	-0.00117415	0.197261
26521	-0.00119323	0.181698
26560	-0.000964338	0.16856
26599	-0.00092619	0.157978
26638	-0.00104063	0.148347
26677	-0.00102156	0.13999
26716	-0.00105971	0.132971
26755	-0.00107878	0.126685
26794	-0.000907116	0.121197
26833	-0.000868968	0.115702
26872	-0.00104063	0.110899
26911	-0.000983412	0.106517
26950	-0.00113601	0.102651
26989	-0.00100249	0.0990231
27028	-0.00092619	0.095498
27067	-0.00107878	0.0924672
27106	-0.00100249	0.089953
27145	-0.00105971	0.0871648
27184	-0.000983412	0.0846659
27223	-0.000983412	0.0823676
27262	-0.000983412	0.0801728
27301	-0.00104063	0.078149
27340	-0.00104063	0.076207
27379	-0.00102156	0.0743956
27418	-0.00102156	0.0727525
27457	-0.00092619	0.0714145
27496	-0.00104063	0.0696653
27535	-0.00105971	0.0682018
27574	-0.00104063	0.0668019
27613	-0.00102156	0.0658002
27652	-0.00107878	0.0642763
27691	-0.00102156	0.0631001
27730	-0.00104063	0.0619591
27769	-0.00100249	0.0609854
27808	-0.00107878	0.0599525
27847	-0.00107878	0.058841
27886	-0.00102156	0.0578003
27925	-0.000964338	0.0568519
27964	-0.000945264	0.0561303
28003	-0.00109786	0.055122
28042	-0.00111693	0.0544195
28081	-0.00109786	0.0534948
28120	-0.000964338	0.0526726
28159	-0.000964338	0.0518542
28198	-0.000983412	0.0513777
28237	-0.00111693	0.0501285
28276	-0.00100249	0.0494756
28315	-0.000983412	0.0488918
28354	-0.00123138	0.0481071
28393	-0.000907116	0.0472464
28432	-0.000888042	0.0468755
28471	-0.000964338	0.0462496
28510	-0.00111693	0.0456176
28549	-0.00115508	0.0451606
28588	-0.00107878	0.0444638
28627	-0.000868968	0.0441602
28666	-0.00092619	0.0433381
28705	-0.00102156	0.0430035
28744	-0.00107878	0.0424193
28783	-0.000945264	0.0418862
28822	1.49944	18.8459
28861	1.49939	8.07516
28900	1.4994	5.58351
28939	1.49919	4.41635
28978	1.49931	3.73188
29017	1.49942	3.31528
29056	1.49944	2.99709
29095	1.49929	2.76206
29134	1.49935	2.55301
29173	1.49925	2.44243
29212	1.49937	2.34539
29251	1.49918	2.25511
29290	1.49921	2.15581
29329	1.49931	2.08187
29368	1.4994	2.06023
29407	1.49946	2.0122
29446	1.49925	1.96472
29485	1.49935	1.88173
29524	1.49935	1.8883
29563	1.49919	1.86876
29602	1.49916	1.84284
29641	1.49933	1.77228
29680	1.49923	1.76232
29719	1.49912	1.76913
29758	1.49925	1.75597
29797	1.49935	1.71855
29836	1.49916	1.67566
29875	1.49925	1.6981
29914	1.49929	1.69738
29953	1.49931	1.68347
29992	1.49935	1.61966
30031	1.49933	1.63924
30070	1.4994	1.65344
30109	1.49935	1.65433
30148	1.4994	1.60531
30187	1.49935	1.59682
30226	1.49931	1.61926
30265	1.49927	1.62424
30304	1.49933	1.60626
30343	1.49935	1.56639
30382	1.49933	1.58905
30421	1.49939	1.59684
30460	1.4994	1.59813
30499	1.49927	1.54693
30538	1.49918	1.55594
30577	1.49927	1.57382
30616	-0.00107878	-2.02879
30655	-0.00117415	-0.345203
30694	-0.00105971	-0.14766
30733	-0.00104063	-0.0824142
30772	-0.00092619	-0.0516275
30811	-0.00092619	-0.0342283
30850	-0.00105971	-0.0232363
30889	-0.00104063	-0.0160686
30928	-0.00102156	-0.0107047
30967	-0.00111693	-0.00681126
31006	-0.000983412	-0.003802
31045	-0.000983412	-0.00160835
31084	-0.00104063	5.09129e-05
31123	-0.00100249	0.00157168
31162	-0.00105971	0.00296322
31201	-0.00111693	0.00373391
31240	-0.00107878	0.00439597
31279	-0.00117415	0.00479726
31318	-0.00105971	0.0056998
31357	-0.000945264	0.00599367
31396	-0.00111693	0.00638095
31435	-0.00107878	0.00653074
31474	-0.000983412	0.00701117
31513	-0.00113601	0.0074097
31552	-0.00100249	0.00752849
31591	-0.00104063	0.00767705
31630	-0.00115508	0.00772132
31669	-0.000983412	0.00801367
31708	-0.00119323	0.00805803
31747	-0.00092619	0.00803962
31786	-0.00100249	0.00868758
31825	-0.000964338	0.0083586
31864	-0.000868968	0.00846874
31903	-0.00102156	0.0080107
31942	-0.00117415	0.00850123
31981	-0.00105971	0.00876311
32020	-0.00104063	0.00830587
32059	-0.000964338	0.00852262
32098	-0.00111693	0.00864097
32137	-0.00104063	0.00877492
32176	-0.00111693	0.00880538
32215	-0.00104063	0.00878242
32254	-0.00111693	0.00870642
32293	-0.0012123	0.00878782
32332	-0.00113601	0.00889721
32371	-0.00107878	0.00893245
32410	-0.00117415	0.00874217
32449	-0.00109786	0.00880244
32488	-0.00111693	0.00882839
32527	-0.00100249	0.00904229
32566	-0.000964338	0.00872568
32605	-0.000983412	0.00856264
32644	-0.000945264	0.00886021
32683	-0.000983412	0.00892783
32722	-0.00100249	0.00871611
32761	-0.00104063	0.00879731
32800	-0.000964338	0.00862734
32839	-0.00102156	0.00850348
32878	-0.00113601	0.00855112
32917	-0.00102156	0.00862443
32956	-0.00100249	0.00866701
32995	-0.00105971	0.00856562
33034	-0.00092619	0.00884571
33073	-0.00104063	0.00840977
33112	-0.00111693	0.00863051
33151	-0.00107878	0.00864872
33190	-0.00109786	0.00848484
33229	-0.00092619	0.00863552
33268	-0.00107878	0.00855793
33307	-0.00105971	0.00848744
33346	-0.00102156	0.00868734
33385	-0.000964338	0.00863293
33424	-0.00100249	0.00859108
33463	-0.000868968	0.00855729
33502	-0.00109786	0.00836615
33541	-0.00104063	0.00854404
33580	-0.00107878	0.00846806
33619	-0.000964338	0.00850057
33658	-0.000983412	0.00858396
33697	-0.00100249	0.00853101
33736	-0.00104063	0.00850916
33775	-0.000945264	0.00827113
33814	-0.00104063	0.00833422
33853	-0.000964338	0.00848176
33892	-0.00117415	0.00828982
33931	-0.00115508	0.00827776
33970	-0.00105971	0.00818414
34009	-0.00105971	0.00842033
34048	-0.00104063	0.00836493
34087	-0.00113601	0.00826591
34126	-0.00107878	0.00816607
34165	-0.00100249	0.00817732
34204	-0.00105971	0.00816581
34243	-0.00107878	0.00810645
34282	-0.00092619	0.00807761
34321	-0.00111693	0.00803876
34360	-0.00107878	0.00816479
34399	-0.000868968	0.00784845
34438	-0.000907116	0.00801059
34477	-0.00102156	0.00807853
34516	-0.00102156	0.00813138
34555	-0.000983412	0.00808671
34594	-0.00111693	0.00795512
34633	-0.00102156	0.00784708
34672	-0.000888042	0.00798213
34711	-0.00092619	0.00807754
34750	-0.00104063	0.00794275
34789	-0.00107878	0.00786122
34828	-0.00100249	0.00781325
34867	-0.00111693	0.00801963
34906	-0.00117415	0.00797955
34945	-0.00104063	0.00783878
34984	-0.000849894	0.00795337
35023	-0.000983412	0.00796579
35062	-0.00102156	0.0078368
35101	-0.000888042	0.00774175
35140	-0.00104063	0.00783241
35179	-0.000945264	0.00778543
35218	-0.000945264	0.00801066
35257	-0.00111693	0.00776977
35296	-0.00104063	0.0077794
35335	-0.000964338	0.00765219
35374	-0.00100249	0.00772027
35413	-0.00105971	0.00774308
35452	-0.00104063	0.00779512
35491	-0.0012123	0.00772024
35530	-0.00109786	0.00774769
35569	-0.00107878	0.00777999
35608	-0.000945264	0.00759589
35647	-0.000983412	0.0077477
35686	-0.00105971	0.00746327
35725	-0.000983412	0.00778982
35764	-0.00104063	0.00753928
35803	-0.00104063	0.00757148
35842	-0.00102156	0.00755242
35881	-0.00102156	0.00758487
35920	-0.000964338	0.00764481
35959	-0.00105971	0.00756101
35998	-0.00092619	0.00758785
36037	-0.00092619	0.00750901
36076	-0.00102156	0.00760385
36115	-0.00105971	0.00755593
36154	-0.000983412	0.00743628
36193	-0.00107878	0.00750008
36232	-0.00109786	0.00752556
36271	-0.00107878	0.00742841
36310	-0.00100249	0.00734116
36349	-0.00107878	0.0074159
36388	-0.00107878	0.00752781
36427	-0.00105971	0.00737539
36466	-0.000773597	0.00741342
36505	-0.00102156	0.00767391
36544	-0.00104063	0.00747134
36583	-0.00100249	0.00741124
36622	-0.00109786	0.00724311
36661	-0.000907116	0.00731298
36700	-0.00119323	0.00725563
36739	-0.00113601	0.00730924
36778	-0.00107878	0.00721624
36817	-0.00105971	0.00707448
36856	-0.00113601	0.00731649
36895	-0.00100249	0.00719505
36934	-0.000983412	0.00730442
36973	-0.00104063	0.0072952
37012	-0.00104063	0.00730379
37051	-0.000868968	0.00730216
37090	-0.000964338	0.00716526
37129	-0.00107878	0.00730053
37168	-0.00107878	0.00723142
37207	-0.00105971	0.00719295
37246	-0.000945264	0.00721845
37285	-0.00113601	0.00720462
37324	-0.00109786	0.00717474
37363	-0.000983412	0.00699171
37402	-0.00100249	0.00741505
37441	-0.00113601	0.00708451
37480	-0.00092619	0.00739089
37519	-0.00100249	0.00730608
37558	-0.000945264	0.00707348
37597	-0.000945264	0.00696093
37636	-0.00107878	0.00710149
37675	-0.000888042	0.00709502
37714	-0.000983412	0.00735117
37753	-0.00100249	0.00717498
37792	-0.000983412	0.00699742
37831	-0.00083082	0.00712157
37870	-0.000964338	0.00693865
37909	-0.00113601	0.00705115
37948	-0.000849894	0.00689887
37987	-0.000983412	0.00688155
38026	-0.00100249	0.00699616
38065	-0.00105971	0.00691622
38104	-0.000964338	0.00694017
38143	-0.00100249	0.00701784
38182	-0.00102156	0.00693489
38221	-0.00107878	0.00698038
38260	-0.00109786	0.00692087
38299	-0.000888042	0.00678535
38338	-0.00111693	0.00687966
38377	-0.00105971	0.00687857
38416	-0.00107878	0.0070143
38455	-0.00100249	0.00677337
38494	-0.000945264	0.00687875
38533	-0.000983412	0.00688679
38572	-0.000849894	0.00679109
38611	-0.00105971	0.0069225
38650	-0.000907116	0.00690869
38689	-0.00111693	0.00685909
38728	-0.00092619	0.00679522
38767	-0.00109786	0.00684071
38806	-0.000945264	0.00672086
38845	-0.00100249	0.00682397
38884	-0.00107878	0.00688649
38923	-0.00102156	0.00686363
38962	-0.00107878	0.0066223
39001	-0.00109786	0.006872
39040	-0.000964338	0.00688181
39079	-0.00111693	0.00684844
39118	-0.000983412	0.00661722
39157	-0.00109786	0.00663216
39196	-0.000964338	0.00675265
39235	-0.00105971	0.00676808
39274	-0.000964338	0.00677749
39313	-0.00105971	0.00688063
39352	-0.00105971	0.006656
39391	-0.00113601	0.00680139
39430	-0.000983412	0.00685658
39469	-0.00109786	0.00648763
39508	-0.00100249	0.00654223
39547	-0.00105971	0.00679897
39586	-0.000964338	0.00648375
39625	-2.00085	-16.9544
39664	-2.00096	-7.80725
39703	-2.00092	-5.56446
39742	-2.00094	-4.84191
39781	-2.00088	-4.87688
39820	-2.00073	-4.41215
39859	-2.0009	-4.29007
39898	-2.00069	-4.27156
39937	-2.0009	-4.32871
39976	-2.00083	-4.27683
40015	-2.00073	-4.29451
40054	-2.00077	-4.68496
40093	-2.00081	-4.46083
40132	-2.00079	-4.48331
40171	-2.0009	-4.93666
40210	-2.00071	-4.65266
40249	-2.00069	-4.69776
40288	-2.00081	-4.89762
40327	-2.00081	-4.86613
40366	-2.00088	-4.90696
40405	-2.00073	-4.99634
40444	-2.00094	-5.22569
40483	-2.00069	-5.17855
40522	-0.00105971	3.51815
40561	-0.00102156	1.06477
40600	-0.000945264	0.631868
40639	-0.000907116	0.451433
40678	-0.00100249	0.353935
40717	-0.00107878	0.291949
40756	-0.00104063	0.249591
40795	-0.00100249	0.21794
40834	-0.00107878	0.193814
40873	-0.000888042	0.174469
40912	-0.00107878	0.159316
40951	-0.000964338	0.146478
40990	-0.00111693	0.135927
41029	-0.00100249	0.126631
41068	-0.00102156	0.118958
41107	-0.00092619	0.112429
41146	-0.00100249	0.106239
41185	-0.000945264	0.101048
41224	-0.00104063	0.0964381
41263	-0.00104063	0.0924596
41302	-0.000945264	0.0885428
41341	-0.00105971	0.0854447
41380	-0.00104063	0.0818183
41419	-0.00105971	0.0792268
41458	-0.000964338	0.0764921
41497	-0.000888042	0.0743291
41536	-0.000964338	0.0718968
41575	-0.00109786	0.0697396
41614	-0.00107878	0.0680751
41653	-0.000983412	0.0662408
41692	-0.000964338	0.0646639
41731	-0.000907116	0.0628426
41770	-0.000907116	0.0617034
41809	-0.00111693	0.0600697
41848	-0.00107878	0.0587096
41887	-0.00100249	0.0575451
41926	-0.00111693	0.0564068
41965	-0.00107878	0.0551729
42004	-0.00100249	0.0538432
42043	-0.00107878	0.0529658
42082	-0.00092619	0.0519631
42121	-0.00104063	0.0511899
42160	-0.000964338	0.0501477
42199	-0.00102156	0.0492153
42238	-0.00100249	0.048195
42277	-0.00100249	0.047609
42316	-0.00102156	0.0467141
42355	-0.00100249	0.0457492
42394	-0.00100249	0.0452313
42433	-0.00092619	0.0446444
42472	-0.00105971	0.0437413
42511	-0.00115508	0.0430613
42550	-0.00109786	0.0425619
42589	-0.000983412	0.0418641
42628	-0.000964338	0.0413271
42667	-0.000983412	0.0408897
42706	-0.00100249	0.0403464
42745	-0.00102156	0.0396516
42784	-0.00109786	0.0392658
42823	-0.000907116	0.0386718
42862	-0.000983412	0.0380825
42901	-0.000964338	0.0375262
42940	-0.00092619	0.037297
42979	-0.000983412	0.0368912
43018	-0.00109786	0.0363189
43057	-0.00105971	0.0359188
43096	-0.00092619	0.0354916
43135	-0.00102156	0.0351186
43174	-0.00111693	0.034713
43213	1.49925	24.9897
43252	1.49925	7.71818
43291	1.49937	5.05373
43330	1.49929	3.98688
43369	1.4995	3.40639
43408	1.49933	3.02351
43447	1.49931	2.7391
43486	1.49925	2.53745
43525	1.49952	2.4289
43564	1.4994	2.31518
43603	1.49937	2.22284
43642	1.49931	2.09052
43681	1.49929	2.06638
43720	1.49933	2.03137
43759	1.49931	1.98651
43798	1.49931	1.89889
43837	1.49935	1.86288
43876	1.49925	1.86413
43915	1.49923	1.83775
43954	1.49933	1.80078
43993	1.49925	1.74056
44032	1.49925	1.76146
44071	1.49931	1.75913
44110	1.49931	1.74691
44149	1.49929	1.67479
44188	1.4995	1.6825
44227	1.49927	1.70109
44266	1.49916	1.70816
44305	1.49916	1.66496
44344	1.49931	1.63855
44383	1.49933	1.66404
44422	1.49931	1.66752
44461	1.49944	1.65964
44500	1.49935	1.61153
44539	1.49935	1.63517
44578	1.49931	1.6479
44617	1.49921	1.65276
44656	1.49942	1.60133
44695	1.49921	1.60079
44734	1.49916	1.61973
44773	1.49939	1.63048
44812	1.49918	1.60066
44851	1.49925	1.57281
44890	1.49931	1.59447
44929	1.49929	1.60415
44968	1.49933	1.595
45007	-0.000983412	-6.97544
45046	-0.000983412	-0.499907
45085	-0.00105971	-0.207615
45124	-0.000964338	-0.117868
45163	-0.00107878	-0.0767203
45202	-0.00100249	-0.0535203
45241	-0.00092619	-0.0393874
45280	-0.000945264	-0.0293793
45319	-0.00107878	-0.0221007
45358	-0.000907116	-0.0170756
45397	-0.00100249	-0.0128388
45436	-0.00107878	-0.00983898
45475	-0.00117415	-0.00701487
45514	-0.00105971	-0.00505152
45553	-0.00105971	-0.00331205
45592	-0.00107878	-0.00186353
45631	-0.000888042	-0.000810895
45670	-0.00100249	0.000221326
45709	-0.00104063	0.000631288
45748	-0.00107878	0.00183834
45787	-0.000964338	0.00206269
45826	-0.00100249	0.00296623
45865	-0.000907116	0.00347427
45904	-0.00102156	0.00381739
45943	-0.00102156	0.00400203
45982	-0.00105971	0.00446185
46021	-0.00104063	0.00467849
46060	-0.00109786	0.00498268
46099	-0.00109786	0.00498303
46138	-0.00104063	0.00522647
46177	-0.00113601	0.00558127
46216	-0.000983412	0.0058529
46255	-0.00107878	0.00603036
46294	-0.00109786	0.00579652
46333	-0.00109786	0.00624125
46372	-0.00111693	0.00612338
46411	-0.00100249	0.00623264
46450	-0.00102156	0.00639107
46489	-0.00092619	0.00641988
46528	-0.00105971	0.00635487
46567	-0.000907116	0.00645082
46606	-0.00111693	0.00644625
46645	-0.00105971	0.0067502
46684	-0.00115508	0.00674409
46723	-0.00105971	0.00664428
46762	-0.00102156	0.00665144
46801	-0.00102156	0.00668388
46840	-0.00102156	0.00685291
46879	-0.00115508	0.00689461
46918	-0.000945264	0.00681312
46957	-0.00109786	0.0068826
46996	-0.00104063	0.00694021
47035	-0.00113601	0.00692656
47074	-0.000945264	0.00711082
47113	-0.00109786	0.00682976
47152	-0.000964338	0.00684679
47191	-0.00104063	0.00701844
47230	-0.00109786	0.00694291
47269	-0.000907116	0.00713904
47308	-0.000964338	0.00690102
47347	-0.00102156	0.00697329
47386	-0.00102156	0.00694334
47425	-0.00100249	0.00690049
47464	-0.00105971	0.00703738
47503	-0.000907116	0.00701771
47542	-0.00111693	0.00725438
47581	-0.000964338	0.00698852
47620	-0.00107878	0.00692474
47659	-0.00092619	0.00699272
47698	-0.000983412	0.00695284
47737	-0.00104063	0.00696766
47776	-0.00100249	0.00683133
47815	-0.00107878	0.00700084
47854	-0.000983412	0.0070197
47893	-0.00107878	0.0069263
47932	-0.00107878	0.00708241
47971	-0.000868968	0.00705369
48010	-0.00100249	0.0071533
48049	-0.00111693	0.00683656
48088	-0.00102156	0.00712541
48127	-0.000945264	0.00687047
48166	-0.00100249	0.00700068
48205	-0.000888042	0.00700395
48244	-0.00109786	0.00688465
48283	-0.00104063	0.00683361
48322	-0.00100249	0.00692138
48361	-0.00102156	0.00685784
48400	-0.000964338	0.00670761
48439	-0.00100249	0.00686717
48478	-0.00105971	0.00692952
48517	-0.00102156	0.00692898
48556	-0.00104063	0.00677808
48595	-0.00105971	0.00679299
48634	-0.00100249	0.00680018
48673	-0.00109786	0.00681286
48712	-0.0012123	0.00698284
48751	-0.00109786	0.00673804
48790	-0.00109786	0.00681144
48829	-0.00102156	0.00665485
48868	-0.00107878	0.00681119
48907	-0.00104063	0.0069906
48946	-0.00109786	0.00686622
48985	-0.00109786	0.00682101
49024	-0.00107878	0.00682099
49063	-0.00107878	0.00695126
49102	-0.00105971	0.00674909
49141	-0.00107878	0.00666631
49180	-0.00102156	0.006781
49219	-0.00111693	0.00694481
49258	-0.00111693	0.00669039
49297	-0.000888042	0.00674896
49336	-0.00102156	0.00652821
49375	-0.00119323	0.00682
49414	-0.00102156	0.00652986
49453	-0.000983412	0.00663768
49492	-0.00102156	0.00670775
49531	-0.000945264	0.00666655
49570	-0.00104063	0.00670437
49609	-0.000964338	0.00660166
49648	-0.00100249	0.00671585
49687	-0.000983412	0.00666421
49726	-0.00115508	0.00654034
49765	-0.00107878	0.00655194
49804	-0.00107878	0.00658816
49843	-0.00115508	0.00639876
49882	-0.00102156	0.00691027
49921	-0.00113601	0.00660914
49960	-0.00100249	0.0066015
49999	-0.00109786	0.00648038
50038	-0.000983412	0.0065955
50077	-0.000907116	0.00660868
50116	-0.00105971	0.00645559
50155	-0.00105971	0.00651826
50194	-0.00104063	0.00652513
50233	-0.000964338	0.00662492
50272	-0.00109786	0.00636148
50311	-0.00092619	0.00652533
50350	-0.000907116	0.00625766
50389	-0.000964338	0.00658706
50428	-0.000907116	0.00641259
50467	-0.000983412	0.00635998
50506	-0.00107878	0.00644115
50545	-0.00113601	0.00631419
50584	-0.00109786	0.00642235
50623	-0.00105971	0.00639615
50662	-0.00092619	0.00631738
50701	-0.00102156	0.0062719
50740	-0.00102156	0.00631665
50779	-0.000983412	0.00627615
50818	-0.000964338	0.00629466
50857	-0.00104063	0.00623989
50896	-0.00115508	0.00637855
50935	-0.00113601	0.00627281
50974	-0.000964338	0.00628767
51013	-0.000964338	0.00624211
51052	-0.000983412	0.00624328
51091	-0.000983412	0.00620097
51130	-0.00092619	0.00620436
51169	-0.00109786	0.00623676
51208	-0.000945264	0.00624948
51247	-0.00102156	0.00624849
51286	-0.00115508	0.00621632
51325	-0.000945264	0.006212
51364	-0.00100249	0.00618592
51403	-0.00119323	0.00620739
51442	-0.000964338	0.0061205
51481	-0.00105971	0.00606068
51520	-0.00117415	0.00605523
51559	-0.00107878	0.00624709
51598	-0.00100249	0.00609745
51637	-0.000888042	0.0059167
51676	-0.00100249	0.00612044
51715	-0.00104063	0.00611945
51754	-0.00111693	0.00609716
51793	-0.000983412	0.00612847
51832	-0.00107878	0.00605647
51871	-0.00104063	0.00588597
51910	-0.000945264	0.00607568
51949	-0.00105971	0.00592142
51988	-0.00104063	0.00596201
52027	-0.00111693	0.00596485
52066	-0.00109786	0.00616846
52105	-0.00109786	0.00599574
52144	-0.000983412	0.00596175
52183	-0.00107878	0.00592161
52222	-0.000964338	0.00592752
52261	-0.000983412	0.0059627
52300	-0.000983412	0.0058539
52339	-0.00105971	0.00595678
52378	-0.000907116	0.00595679
52417	-0.00092619	0.00592907
52456	-0.00092619	0.00589577
52495	-0.000868968	0.00589671
52534	-0.00102156	0.00604817
52573	-0.00100249	0.00598769
52612	-0.00100249	0.00582153
52651	-0.00105971	0.00569678
52690	-0.00100249	0.00606745
52729	-0.00104063	0.00596539
52768	-0.00102156	0.00581719
52807	-0.00115508	0.00581571
52846	-0.00105971	0.00576264
52885	-0.000907116	0.00583977
52924	-0.00100249	0.00581929
52963	-0.00100249	0.00578741
53002	-0.00104063	0.00567364
53041	-0.00092619	0.00568893
53080	-0.000983412	0.0057744
53119	-0.00100249	0.00586439
53158	-0.00100249	0.00575858
53197	-0.000907116	0.00576607
53236	-0.00104063	0.00584143
53275	-0.000907116	0.005773
53314	-0.000983412	0.00591527
53353	-0.000983412	0.00582035
53392	-0.00104063	0.00572276
53431	-0.000907116	0.00573689
53470	-0.00109786	0.00568468
53509	-0.00104063	0.0056981
53548	-0.00107878	0.00578132
53587	-0.00113601	0.00581134
53626	-0.00100249	0.00592426
53665	-0.00100249	0.00575923
53704	-0.00109786	0.00544372
53743	-0.00105971	0.0058477
53782	-0.00100249	0.00559508
53821	-0.00115508	0.00549604
53860	-0.00100249	0.00564791
53899	-0.00105971	0.00559307
53938	-0.00107878	0.0053874
53977	-0.00111693	0.00556138
54016	-2.00083	-26.6022
54055	-2.00075	-7.82152
54094	-2.00073	-5.47639
54133	-2.00081	-4.94796
54172	-2.00088	-4.48557
54211	-2.00083	-4.28326
54250	-2.00077	-4.21069
54289	-2.00079	-4.33378
54328	-2.00086	-4.22578
54367	-2.00083	-4.25809
54406	-2.00079	-4.64977
54445	-2.00073	-4.39989
54484	-2.00098	-4.44463
54523	-2.00079	-4.51564
54562	-2.00104	-4.67582
54601	-2.00079	-4.66845
54640	-2.00085	-4.7383
54679	-2.00085	-5.19341
54718	-2.00077	-4.90664
54757	-2.00088	-4.96065
54796	-2.00081	-5.2935
54835	-2.00085	-5.14437
54874	-2.00092	-5.19086
54913	-0.00102156	7.37607
54952	-0.00107878	1.24883
54991	-0.00092619	0.674024
55030	-0.00100249	0.463329
55069	-0.000983412	0.354807
55108	-0.00113601	0.288684
55147	-0.000907116	0.243443
55186	-0.00109786	0.21099
55225	-0.000945264	0.186361
55264	-0.000983412	0.1673
55303	-0.00109786	0.151429
55342	-0.000964338	0.138887
55381	-0.000983412	0.128499
55420	-0.000945264	0.119658
55459	-0.00105971	0.111806
55498	-0.000964338	0.105105
55537	-0.00105971	0.0994107
55576	-0.000964338	0.0944484
55615	-0.00100249	0.089777
55654	-0.000964338	0.0856805
55693	-0.000964338	0.0820725
55732	-0.00100249	0.0786368
55771	-0.000945264	0.0759407
55810	-0.00107878	0.0728486
55849	-0.00104063	0.0703755
55888	-0.00109786	0.0682742
55927	-0.00092619	0.0661147
55966	-0.00107878	0.0644459
56005	-0.000907116	0.0619923
56044	-0.000945264	0.0603301
56083	-0.00102156	0.0590242
56122	-0.000945264	0.0575577
56161	-0.00111693	0.0560594
56200	-0.000945264	0.0547083
56239	-0.00100249	0.0533064
56278	-0.00102156	0.0521536
56317	-0.00109786	0.0510714
56356	-0.00109786	0.04993
56395	-0.000983412	0.0487551
56434	-0.000945264	0.0479268
56473	-0.00107878	0.046926
56512	-0.00102156	0.0460322
56551	-0.000983412	0.0452552
56590	-0.00100249	0.0444892
56629	-0.00100249	0.043431
56668	-0.00102156	0.0429829
56707	-0.00104063	0.0420828
56746	-0.000964338	0.0412065
56785	-0.00111693	0.0408634
56824	-0.000964338	0.0400191
56863	-0.00100249	0.039505
56902	-0.00102156	0.0390482
56941	-0.00102156	0.0383866
56980	-0.00104063	0.0379288
57019	-0.00104063	0.0373111
57058	-0.00105971	0.0368306
57097	-0.00104063	0.036242
57136	-0.00107878	0.0356479
57175	-0.00100249	0.035521
57214	-0.00104063	0.0348771
57253	-0.000945264	0.0344169
57292	-0.00102156	0.0342262
57331	-0.000983412	0.0334758
57370	-0.00111693	0.0332883
57409	-0.000964338	0.032842
57448	-0.000964338	0.0324333
57487	-0.00105971	0.0321142
57526	-0.00105971	0.0316524
57565	-0.000983412	0.0313765
57600	-0.00104063	0.031061