File: Data_32_Experiment/CA_001_C01.txt
time/s	Ewe/V	<I>/mA
1	1.49955	242.007
42	1.49953	13.0271
83	1.49962	10.9933
124	1.49955	9.94806
165	1.49947	9.35303
206	1.49951	9.07976
247	1.49957	9.09245
288	1.49964	9.258
329	1.49945	9.5201
370	1.49943	9.74342
411	1.49949	9.93975
452	1.4994	10.0936
493	1.49959	10.2104
534	1.4996	10.31
575	1.49951	10.3876
616	1.49943	10.4764
657	1.49949	10.5237
698	1.49949	10.587
739	1.49943	10.603
780	1.49936	10.6205
821	1.49955	10.6151
862	1.49957	10.583
903	1.49959	10.557
944	1.49966	10.4932
985	1.49947	10.4375
1026	1.49955	10.3312
1067	1.49966	10.2357
1108	1.49951	10.1064
1149	1.49951	9.98455
1190	1.49932	9.83166
1231	1.49974	9.69535
1272	1.49947	9.56147
1313	1.49949	9.40896
1354	1.49957	9.28327
1395	1.49949	9.14002
1436	1.49959	9.0167
1477	1.49959	8.87126
1518	1.4996	8.74696
1559	1.49968	8.61874
1600	1.49955	8.49024
1641	1.49943	8.37841
1682	1.49951	8.24734
1723	1.49941	8.1477
1764	1.49962	8.02789
1805	1.49945	7.92064
1846	1.49957	7.81017
1887	1.49949	7.70865
1928	1.49949	7.60113
1969	1.49941	7.51856
2010	1.49949	7.41215
2051	1.49943	7.30597
2092	1.49955	7.21233
2133	1.49947	7.09795
2174	1.49964	7.0055
2215	1.49949	6.89529
2256	1.4994	6.7988
2297	1.49951	6.68757
2338	1.49955	6.58589
2379	1.49947	6.47606
2420	1.49953	6.35896
2461	1.49949	6.25766
2502	1.49959	6.13385
2543	1.49955	6.03508
2584	1.49941	5.91317
2625	1.49947	5.81621
2666	1.49951	5.69681
2706.95	-0.000802256	-7.90164
2747.95	-0.000954849	-0.042939
2788.95	-0.00106929	0.386272
2829.95	-0.000954849	0.303845
2870.95	-0.000859479	0.302254
2911.95	-0.000897627	0.222847
2952.95	-0.00106929	0.233963
2993.95	-0.00103115	0.178421
3034.95	-0.000935775	0.189533
3075.95	-0.000859479	0.144181
3116.95	-0.000764108	0.158113
3157.95	-0.00105022	0.138767
3198.95	-0.00082133	0.136183
3239.95	-0.000935775	0.14022
3280.95	-0.000859479	0.118795
3321.95	-0.000859479	0.133207
3362.95	-0.00101207	0.100558
3403.95	-0.000954849	0.11659
3444.95	-0.00101207	0.0882636
3485.95	-0.000916701	0.102745
3526.95	-0.000916701	0.0830081
3567.95	-0.000840404	0.090324
3608.95	-0.000802256	0.0882364
3649.95	-0.00082133	0.0794196
3690.95	-0.000878553	0.0888664
3731.95	-0.000878553	0.0697266
3772.95	-0.000878553	0.0839704
3813.95	-0.00101207	0.0617155
3854.95	-0.000935775	0.0752691
3895.95	-0.000859479	0.0574698
3936.95	-0.000840404	0.0686136
3977.95	-0.000935775	0.0625095
4018.95	-0.000897627	0.0620849
4059.95	-0.000878553	0.0675162
4100.95	-0.000935775	0.056285
4141.95	-0.000783182	0.0671747
4182.95	-0.000764108	0.0516209
4223.95	-0.000954849	0.0633444
4264.95	-0.000840404	0.0485579
4305.95	-0.00106929	0.0585965
4346.95	-0.000764108	0.0509059
4387.95	-0.000783182	0.0551328
4428.95	-0.000916701	0.0571566
4469.95	-0.000916701	0.0516905
4510.95	-0.000840404	0.0597965
4551.95	-0.000935775	0.0476533
4592.95	-0.000878553	0.0557151
4633.95	-0.000783182	0.0429671
4674.95	-0.000897627	0.0527725
4715.95	-0.000897627	0.0433507
4756.95	-0.000916701	0.0502649
4797.95	-0.000935775	0.0498757
4838.95	-0.000916701	0.0479035
4879.95	-0.000916701	0.05225
4920.95	-0.000954849	0.0438814
4961.95	-0.000916701	0.0502208
5002.95	-0.000954849	0.0394731
5043.95	-0.000916701	0.0475242
5084.95	-0.000954849	0.0385741
5125.95	-0.000878553	0.0452725
5166.95	-0.000935775	0.041434
5207.95	-0.000897627	0.0433378
5248.95	-0.000897627	0.0465869
5289.95	-0.000916701	0.0408469
5330.95	-0.000878553	0.0466483
5371.95	-0.000897627	0.0385656
5412.95	-0.000935775	0.0451958
5453.95	-0.00072596	0.0361222
5494.95	-0.00101207	0.0427695
5535.95	-0.000878553	0.0368705
5576.95	-0.000916701	0.0404759
5617.95	-0.000935775	0.0415143
5658.95	-0.000935775	0.0391999
5699.95	-0.000897627	0.0439125
5740.95	-0.000973923	0.0374023
5781.95	-0.000916701	0.0434406
5822.95	-0.00103115	0.0358934
5863.95	-0.000973923	0.0420857
5904.95	-0.000897627	0.035961
5945.95	-0.000992997	0.040617
5986.95	-0.000954849	0.0397191
6027.95	-0.000878553	0.0393359
6068.95	-0.000916701	0.0422256
6109.95	-0.000878553	0.0374802
6150.95	-0.000973923	0.0421932
6191.95	-0.000859479	0.0362716
6232.95	-0.000992997	0.0417956
6273.95	-0.00082133	0.0357326
6314.95	-0.000992997	0.0401527
6355.95	-0.000897627	0.036966
6396.95	-0.000897627	0.0376524
6437.95	-0.000916701	0.0393581
6478.95	-0.000954849	0.0366014
6519.95	-0.000840404	0.0403667
6560.95	-0.000973923	0.0350235
6601.95	-0.000897627	0.0394382
6642.95	-0.000859479	0.0341611
6683.95	-0.000916701	0.0389094
6724.95	-0.000897627	0.0350694
6765.95	-0.00082133	0.0377117
6806.95	-0.000916701	0.0381167
6847.95	-0.000973923	0.0369329
6888.95	-0.00103115	0.0398039
6929.95	-0.00082133	0.035757
6970.95	-0.000916701	0.0393728
7011.95	-0.000935775	0.0345424
7052.95	-0.000916701	0.0384871
7093.95	-0.000954849	0.0343351
7134.95	-0.000916701	0.0379257
7175.95	-0.000840404	0.0370822
7216.95	-0.000992997	0.0373288
7257.95	-0.000954849	0.0393788
7298.95	-0.000897627	0.0362672
7339.95	-0.00103115	0.0391621
7380.95	-0.000897627	0.0355953
7421.95	-0.00108837	0.0392803
7462.95	-0.000878553	0.0349717
7503.95	-0.000878553	0.0375699
7544.95	-0.00105022	0.0353092
7585.95	-0.00108837	0.0368401
7626.95	-0.00101207	0.0384543
7667.95	-0.00108837	0.0364835
7708.95	-0.00072596	0.0387893
7749.95	-0.000916701	0.0354627
7790.95	-0.00082133	0.0386438
7831.95	-0.000916701	0.0348887
7872.95	-0.00101207	0.0374927
7913.95	-0.000954849	0.0348376
7954.95	-0.00110744	0.036996
7995.95	-0.00105022	0.0368554
8036.95	-0.00082133	0.0359983
8077.95	-0.000878553	0.0378145
8118.95	-0.000935775	0.0350944
8159.95	-0.000878553	0.0374419
8200.95	-0.000897627	0.0340214
8241.95	-0.000935775	0.0364002
8282.95	-0.000935775	0.0334395
8323.95	-0.00101207	0.0357218
8364.95	-0.000878553	0.0349667
8405.95	-0.000916701	0.0352235
8446.95	-0.000764108	0.0368199
8487.95	-0.000973923	0.0345775
8528.95	-0.000916701	0.0363492
8569.95	-0.000840404	0.0333781
8610.95	-0.000897627	0.0353403
8651.95	-0.000992997	0.0324717
8692.95	-0.000992997	0.034984
8733.95	-0.000973923	0.0328835
8774.95	-0.00101207	0.0339093
8815.95	-0.000840404	0.0347494
8856.95	-0.000973923	0.0337113
8897.95	-0.000973923	0.035698
8938.95	-0.000916701	0.0331729
8979.95	-0.00101207	0.0351564
9020.95	-0.000783182	0.0324597
9061.95	-0.000954849	0.0345194
9102.95	-0.000935775	0.0321522
9143.95	-0.00101207	0.033971
9184.95	-0.00082133	0.0340852
9225.95	-0.000935775	0.0339936
9266.95	-0.000992997	0.035663
9307.95	-0.00101207	0.033511
9348.95	-0.000954849	0.0352131
9389.95	-0.000935775	0.0326267
9430.95	-0.000802256	0.0342046
9471.95	-0.00103115	0.0320144
9512.95	-0.000916701	0.0340088
9553.95	-0.00105022	0.03313
9594.95	-0.000783182	0.0335406
9635.95	-0.00105022	0.0345321
9676.95	-0.000878553	0.0329229
9717.95	-0.000802256	0.034584
9758.95	-0.00106929	0.0327334
9799.95	-0.000992997	0.034729
9840.95	-0.000897627	0.032831
9881.95	-0.000916701	0.034384
9922.95	-0.000916701	0.0326671
9963.95	-0.000859479	0.033456
10005	-0.000916701	0.0339342
10046	-0.000992997	0.0334449
10087	-0.000859479	0.0350448
10128	-0.000973923	0.0332501
10169	-0.000992997	0.0348654
10210	-0.000916701	0.0329239
10251	-0.000935775	0.0344071
10292	-0.000935775	0.0326409
10333	-0.000916701	0.0337117
10374	-0.000878553	0.0333874
10415	-0.000992997	0.033541
10456	-0.000973923	0.0350114
10497	-0.000935775	0.0333668
10538	-0.00105022	0.034669
10579	-0.00082133	0.0328657
10620	-0.000973923	0.0342395
10661	-0.000973923	0.0327944
10702	-0.000935775	0.0339802
10743	-0.000859479	0.0332003
10784	-0.000992997	0.033688
10825	-0.000897627	0.0343087
10866	-0.000973923	0.0332028
10907	-0.00103115	0.0346342
10948	-0.00112652	0.0331517
10989	-0.00101207	0.0342571
11030	-0.000878553	0.0326537
11071	-0.000935775	0.0337292
11112	-0.000764108	0.0324953
11153	-0.00082133	0.0335165
11194	-0.000935775	0.0338668
11235	-0.00072596	0.0334359
11276	-0.000973923	0.0346642
11317	-0.000992997	0.0329256
11358	-0.000859479	0.0340839
11399	-0.00101207	0.0323321
11440	-0.000973923	0.0334218
11481	-0.000897627	0.0323892
11522	-0.000954849	0.0335793
11563	-0.000840404	0.0331687
11604	-0.000878553	0.0331869
11645	-0.000973923	0.0340277
11686	-0.000973923	0.0327041
11727	-2.00097	-68.5864
11768	-2.00086	-40.2895
11809	-2.00089	-28.2771
11850	-2.00078	-21.0941
11891	-2.00087	-16.4721
11932	-2.00095	-13.2839
11973	-2.00089	-11.0348
12014	-2.00086	-9.38554
12055	-2.00093	-8.1407
12096	-2.00086	-7.22503
12137	-2.00084	-6.45508
12178	-2.00084	-5.91562
12219	-2.00089	-5.41612
12260	-2.00086	-5.05258
12301	-2.00091	-4.74017
12342	-2.0008	-4.53559
12383	-2.00093	-4.31161
12424	-2.00082	-4.12
12465	-2.00093	-3.98494
12506	-2.00087	-3.81329
12547	-2.00089	-3.70568
12588	-2.00084	-3.59094
12629	-0.000840404	4.07371
12670	-0.00072596	2.03943
12711	-0.000897627	1.60157
12752	-0.000954849	1.40165
12793	-0.000878553	1.27495
12834	-0.000973923	1.20763
12875	-0.000897627	1.11391
12916	-0.000954849	1.08363
12957	-0.000973923	1.0073
12998	-0.000897627	0.97903
13039	-0.000802256	0.925379
13080	-0.000935775	0.90026
13121	-0.00106929	0.863954
13162	-0.000840404	0.838806
13203	-0.000802256	0.820983
13244	-0.000897627	0.788649
13285	-0.000935775	0.78695
13326	-0.00101207	0.744538
13367	-0.000783182	0.740905
13408	-0.000878553	0.705915
13449	-0.000897627	0.696943
13490	-0.00101207	0.673163
13531	-0.000916701	0.662691
13572	-0.000840404	0.649128
13613	-0.000897627	0.633661
13654	-0.000935775	0.634629
13695	-0.00103115	0.608047
13736	-0.000859479	0.611808
13777	-0.000992997	0.584097
13818	-0.000897627	0.581579
13859	-0.000897627	0.561938
13900	-0.00105022	0.557413
13941	-0.000859479	0.544481
13982	-0.00106929	0.537255
14023	-0.000954849	0.535237
14064	-0.000878553	0.519149
14105	-0.000878553	0.524962
14146	-0.000897627	0.501998
14187	-0.000935775	0.503683
14228	-0.000916701	0.485927
14269	-0.000859479	0.481727
14310	-0.000878553	0.470057
14351	-0.000840404	0.466458
14392	-0.000916701	0.461345
14433	-0.00082133	0.452557
14474	-0.000859479	0.457196
14515	-0.000840404	0.439574
14556	-0.00082133	0.44376
14597	-0.000954849	0.427062
14638	-0.000859479	0.426701
14679	-0.000878553	0.415281
14720	-0.000935775	0.413433
14761	-0.000954849	0.407031
14802	-0.000783182	0.402437
14843	-0.000992997	0.403872
14884	-0.00082133	0.392068
14925	-0.000935775	0.397254
14966	-0.000992997	0.38192
15007	-0.000859479	0.3833
15048	-0.00105022	0.37221
15089	-0.000916701	0.371332
15130	-0.000802256	0.364474
15171	-0.000859479	0.362026
15212	-0.000954849	0.360306
15253	-0.00101207	0.353138
15294	-0.000859479	0.357404
15335	1.49951	31.7588
15376	1.49947	17.4502
15417	1.49945	13.4213
15458	1.49955	11.7299
15499	1.49934	10.735
15540	1.4994	10.1009
15581	1.49945	9.58609
15622	1.49966	9.23718
15663	1.49945	8.92787
15704	1.49943	8.66009
15745	1.49964	8.43413
15786	1.49955	8.2055
15827	1.4996	8.01511
15868	1.4996	7.81128
15909	1.49957	7.65657
15950	1.49951	7.49879
15991	1.4994	7.36418
16032	1.49964	7.21724
16073	1.49959	7.10815
16114	1.49955	6.97596
16155	1.49966	6.86681
16196	1.4997	6.74627
16237	1.49945	6.64573
16278	1.49953	6.53759
16319	1.49966	6.42275
16360	1.49947	6.31469
16401	1.4996	6.20934
16442	1.49949	6.11778
16483	1.49949	5.99905
16524	1.4994	5.91039
16565	1.49951	5.80027
16606	1.49951	5.71189
16647	1.49951	5.61213
16688	1.49955	5.51876
16729	1.49959	5.41534
16770	1.49943	5.31238
16811	1.49949	5.21011
16852	1.4996	5.10319
16893	1.49962	5.01319
16934	1.49943	4.89887
16975	1.49945	4.79207
17016	1.4994	4.68399
17057	1.49957	4.59081
17098	1.49962	4.48755
17139	1.49947	4.38314
17180	1.49957	4.27447
17221	1.49955	4.16097
17262	1.4994	4.05427
17303	1.4996	3.92363
17344	1.49955	3.82467
17385	1.4997	3.69101
17426	1.4997	3.59591
17467	1.49959	3.47396
17508	1.49953	3.37204
17549	1.4996	3.2616
17590	1.49947	3.16007
17631	1.4994	3.06328
17672	1.49943	2.95849
17713	1.49959	2.8845
17754	1.49943	2.7766
17795	1.49945	2.72589
17836	1.49936	2.63483
17877	1.49955	2.58531
17918	1.4996	2.51027
17959	1.49966	2.45494
18000	1.49941	2.39764
18041	-0.00103115	-0.514917
18082	-0.000992997	-0.123045
18123	-0.00101207	-0.0538858
18164	-0.000954849	-0.0377187
18205	-0.000878553	-0.0238767
18246	-0.000916701	-0.0210055
18287	-0.000992997	-0.0120063
18328	-0.000878553	-0.0109036
18369	-0.000897627	-0.00346482
18410	-0.000954849	-0.00232948
18451	-0.000878553	0.00298822
18492	-0.00108837	0.00679697
18533	-0.00101207	0.00777016
18574	-0.000878553	0.0123447
18615	-0.000954849	0.011605
18656	-0.00105022	0.0160142
18697	-0.00082133	0.0145015
18738	-0.000878553	0.018774
18779	-0.000935775	0.0176251
18820	-0.000973923	0.0214356
18861	-0.000916701	0.0226455
18902	-0.000897627	0.0233048
18943	-0.000935775	0.0264254
18984	-0.000897627	0.0250482
19025	-0.00103115	0.0280731
19066	-0.000973923	0.0256986
19107	-0.000954849	0.0287901
19148	-0.00103115	0.0268491
19189	-0.000935775	0.0296657
19230	-0.000992997	0.0292588
19271	-0.000973923	0.0302023
19312	-0.000954849	0.0325614
19353	-0.00082133	0.031246
19394	-0.00106929	0.0335532
19435	-0.000935775	0.0312302
19476	-0.00082133	0.0335671
19517	-0.000916701	0.0317052
19558	-0.000783182	0.0345467
19599	-0.000859479	0.0331642
19640	-0.000840404	0.0348035
19681	-0.000916701	0.0359362
19722	-0.00082133	0.0350749
19763	-0.000897627	0.0373067
19804	-0.000840404	0.0350726
19845	-0.000878553	0.0370927
19886	-0.000973923	0.0348517
19927	-0.00082133	0.037031
19968	-0.000840404	0.0352706
20009	-0.000897627	0.0372052
20050	-0.000954849	0.0372961
20091	-0.000897627	0.0371505
20132	-0.000878553	0.0392568
20173	-0.000935775	0.0368133
20214	-0.000840404	0.0386282
20255	-0.000935775	0.0365164
20296	-0.000840404	0.0382557
20337	-0.000935775	0.0364986
20378	-0.000954849	0.0382246
20419	-0.000897627	0.037466
20460	-0.00106929	0.0383101
20501	-0.000802256	0.0397436
20542	-0.000878553	0.0382493
20583	-0.000992997	0.0401619
20624	-0.000840404	0.0378995
20665	-0.000916701	0.0392514
20706	-0.000973923	0.0375622
20747	-0.000916701	0.0392973
20788	-0.000992997	0.0378991
20829	-0.000973923	0.0389534
20870	-0.000992997	0.039504
20911	-0.000878553	0.038764
20952	-0.000935775	0.0406071
20993	-0.00082133	0.0385022
21034	-0.000973923	0.0398773
21075	-0.000916701	0.0379404
21116	-0.000916701	0.0392011
21157	-0.00101207	0.0376537
21198	-0.000745034	0.0386635
21239	-0.000764108	0.0387138
21280	-0.00103115	0.0389172
21321	-0.000897627	0.0407039
21362	-0.000935775	0.0387371
21403	-0.000878553	0.0400171
21444	-0.000973923	0.0381762
21485	-0.000878553	0.039277
21526	-0.00082133	0.0378474
21567	-0.000992997	0.039165
21608	-0.00103115	0.0381439
21649	-0.000992997	0.0387605
21690	-0.000954849	0.039844
21731	-0.00103115	0.038319
21772	-0.00103115	0.0397819
21813	-0.000897627	0.0377208
21854	-0.000878553	0.0387293
21895	-0.000916701	0.0371094
21936	-0.000897627	0.0381889
21977	-0.000897627	0.0372263
22018	-0.000840404	0.0380544
22059	-0.000897627	0.03842
22100	-0.000935775	0.0380606
22141	-0.00101207	0.0395049
22182	-0.000764108	0.0373355
22223	-0.000859479	0.0383636
22264	-0.000954849	0.0368416
22305	-0.000916701	0.0379013
22346	-0.000897627	0.0367633
22387	-0.000935775	0.037668
22428	-0.00072596	0.0372314
22469	-0.000935775	0.037287
22510	-0.000916701	0.0385588
22551	-0.000764108	0.0370558
22592	-0.000935775	0.0384116
22633	-0.000897627	0.0365492
22674	-0.000859479	0.037086
22715	-0.000745034	0.035881
22756	-0.000840404	0.0365847
22797	-0.000916701	0.0358786
22838	-0.000859479	0.0366191
22879	-0.000859479	0.0374281
22920	-0.000897627	0.0363927
22961	-0.000840404	0.037786
23002	-0.000802256	0.035831
23043	-0.000935775	0.0365302
23084	-0.000840404	0.0352573
23125	-0.000992997	0.0357802
23166	-0.000916701	0.0347071
23207	-0.000859479	0.0355274
23248	-0.000935775	0.0355463
23289	-0.000992997	0.035313
23330	-0.000916701	0.0364729
23371	-0.000859479	0.0348002
23412	-0.000897627	0.0356144
23453	-0.000916701	0.0342758
23494	-0.000859479	0.0351304
23535	-0.000916701	0.0343414
23576	-0.000897627	0.0350925
23617	-0.000954849	0.0346909
23658	-0.000954849	0.0347706
23699	-0.00101207	0.0357765
23740	-0.000973923	0.0345038
23781	-0.000992997	0.0356816
23822	-0.000897627	0.0339967
23863	-0.000802256	0.034512
23904	-0.000897627	0.0334057
23945	-0.000878553	0.033834
23986	-0.000802256	0.0330843
24027	-0.000935775	0.0335296
24068	-0.000954849	0.0339409
24109	-0.000878553	0.0332165
24150	-0.00108837	0.0344557
24191	-0.000935775	0.0327473
24232	-0.000878553	0.0335535
24273	-0.000973923	0.0323766
24314	-0.000897627	0.0329048
24355	-0.000916701	0.0322414
24396	-0.000935775	0.0327094
24437	-0.00082133	0.0327613
24478	-0.000916701	0.0327977
24519	-0.00082133	0.0338078
24560	-0.000897627	0.032438
24601	-0.000954849	0.0334581
24642	-0.000916701	0.0318732
24683	-0.000973923	0.0322802
24724	-0.000859479	0.0314224
24765	-0.000840404	0.0318862
24806	-0.00106929	0.0314694
24847	-0.000859479	0.0316273
24888	-0.000859479	0.0321563
24929	-0.000840404	0.031314
24970	-0.000859479	0.0324586
25011	-0.000859479	0.0310816
25052	-0.000916701	0.0316789
25093	-0.000916701	0.0307722
25134	-0.000954849	0.031256
25175	-0.000859479	0.0306879
25216	-0.00103115	0.0309417
25257	-0.000802256	0.0309158
25298	-0.000859479	0.0306975
25339	-0.000897627	0.0316201
25380	-0.000935775	0.0302787
25421	-0.00072596	0.0309996
25462	-0.000878553	0.0298097
25503	-0.00101207	0.0302392
25544	-0.000935775	0.0295793
25585	-0.000897627	0.0299865
25626	-0.000935775	0.0296374
25667	-0.000840404	0.0297046
25708	-0.00105022	0.030591
25749	-0.000878553	0.0295892
25790	-0.000973923	0.0306684
25831	-0.000859479	0.0293337
25872	-0.000859479	0.0298056
25913	-0.000992997	0.0292163
25954	-0.000935775	0.0295405
25995	-0.000859479	0.0290358
26036	-0.000802256	0.0292208
26077	-0.000802256	0.029489
26118	-0.000954849	0.0288413
26159	-0.000897627	0.0299155
26200	-0.00103115	0.0286499
26241	-0.000973923	0.0292766
26282	-0.000935775	0.0283265
26323	-0.000916701	0.0286529
26364	-0.000954849	0.0282143
26405	-0.00101207	0.028423
26446	-0.00082133	0.0284225
26487	-0.000783182	0.0281733
26528	-0.00082133	0.0290328
26569	-0.000916701	0.0280344
26610	-0.00101207	0.0288082
26651	-0.000935775	0.0276837
26692	-0.000916701	0.0279327
26733	-0.000802256	0.0273705
26774	-0.00101207	0.0277049
26815	-0.00103115	0.0274332
26856	-0.000935775	0.0275944
26897	-0.000897627	0.0281613
26938	-0.00106929	0.0274837
26979	-0.000859479	0.0285087
27020	-2.00087	-63.8886
27061	-2.00084	-30.8925
27102	-2.00082	-20.2935
27143	-2.00093	-15.0615
27184	-2.00066	-11.9035
27225	-2.00072	-9.86719
27266	-2.00101	-8.38279
27307	-2.00091	-7.26866
27348	-2.0008	-6.42804
27389	-2.00093	-5.72107
27430	-2.00086	-5.18625
27471	-2.00089	-4.71537
27512	-2.00084	-4.34176
27553	-2.00095	-4.00019
27594	-2.00095	-3.73064
27635	-2.00103	-3.48931
27676	-2.00086	-3.2888
27717	-2.00093	-3.1177
27758	-2.00091	-2.96058
27799	-2.00089	-2.83313
27840	-2.00084	-2.69634
27881	-2.0008	-2.60155
27922	-0.000916701	4.74613
27963	-0.00082133	1.76353
28004	-0.000916701	1.16739
28045	-0.000764108	0.941789
28086	-0.000916701	0.811888
28127	-0.000954849	0.721378
28168	-0.000954849	0.670694
28209	-0.00082133	0.605886
28250	-0.000897627	0.577808
28291	-0.000878553	0.527781
28332	-0.000935775	0.50436
28373	-0.000935775	0.468289
28414	-0.000973923	0.449969
28455	-0.000878553	0.427194
28496	-0.000878553	0.410258
28537	-0.000840404	0.39924
28578	-0.000916701	0.378535
28619	-0.000897627	0.375098
28660	-0.000935775	0.352351
28701	-0.000897627	0.347642
28742	-0.000916701	0.329919
28783	-0.000916701	0.32423
28824	-0.000878553	0.312563
28865	-0.00101207	0.30718
28906	-0.000916701	0.301459
28947	-0.000897627	0.293214
28988	-0.000954849	0.294734
29029	-0.000878553	0.282031
29070	-0.000973923	0.283634
29111	-0.000878553	0.272295
29152	-0.000802256	0.272101
29193	-0.000878553	0.264804
29234	-0.000897627	0.263689
29275	-0.000992997	0.259908
29316	-0.00082133	0.2574
29357	-0.000916701	0.258721
29398	-0.000764108	0.251183
29439	-0.000916701	0.25523
29480	-0.00082133	0.245838
29521	-0.000783182	0.247409
29562	-0.000916701	0.240968
29603	-0.000935775	0.241287
29644	-0.000935775	0.237325
29685	-0.000764108	0.236888
29726	-0.000954849	0.237183
29767	-0.00082133	0.233164
29808	-0.000916701	0.237235
29849	-0.000916701	0.229627
29890	-0.00082133	0.232442
29931	-0.000935775	0.22584
29972	-0.00082133	0.22664
30013	-0.000935775	0.222584
30054	-0.000859479	0.222764
30095	-0.000916701	0.221483
30136	-0.00101207	0.219587
30177	-0.000859479	0.222876
30218	-0.00103115	0.216909
30259	-0.000859479	0.220319
30300	-0.000897627	0.213492
30341	-0.000935775	0.214692
30382	-0.000916701	0.210329
30423	-0.00072596	0.210924
30464	-0.000916701	0.208714
30505	-0.000878553	0.208514
30546	-0.000897627	0.209792
30587	-0.000916701	0.206171
30628	1.49957	28.3264
30669	1.49962	13.0568
30710	1.49953	9.33947
30751	1.49943	7.91785
30792	1.49959	7.18561
30833	1.49949	6.76499
30874	1.4996	6.46434
30915	1.49951	6.25759
30956	1.49949	6.09789
30997	1.4996	5.92409
31038	1.49951	5.85088
31079	1.49936	5.69843
31120	1.49943	5.65773
31161	1.4994	5.5503
31202	1.4994	5.49586
31243	1.4994	5.40447
31284	1.49951	5.33554
31325	1.49947	5.25303
31366	1.49962	5.15516
31407	1.49966	5.09486
31448	1.49951	4.96241
31489	1.49951	4.92315
31530	1.49953	4.77211
31571	1.49955	4.72034
31612	1.49941	4.61177
31653	1.49938	4.53624
31694	1.49941	4.43047
31735	1.49938	4.33008
31776	1.49951	4.23263
31817	1.49976	4.09078
31858	1.49957	4.01162
31899	1.49955	3.85286
31940	1.49943	3.77476
31981	1.49949	3.62703
32022	1.49953	3.52225
32063	1.49938	3.3731
32104	1.49947	3.24109
32145	1.49964	3.09916
32186	1.49947	2.93795
32227	1.4994	2.82216
32268	1.49959	2.64493
32309	1.49938	2.56522
32350	1.49951	2.41873
32391	1.49936	2.3527
32432	1.49957	2.24675
32473	1.49947	2.18263
32514	1.49959	2.12041
32555	1.49953	2.08279
32596	1.49943	2.06005
32637	1.49953	2.01018
32678	1.4996	2.03305
32719	1.49947	1.94986
32760	1.49964	2.01026
32801	1.49962	1.91895
32842	1.49953	1.99773
32883	1.49957	1.90982
32924	1.49945	1.9852
32965	1.49955	1.90028
33006	1.49962	1.93591
33047	1.4993	1.88409
33088	1.49943	1.84709
33129	1.49938	1.8621
33170	1.49951	1.78033
33211	1.49947	1.83954
33252	1.49962	1.75739
33293	1.49959	1.83343
33334	-0.000954849	-0.582046
33375	-0.000973923	-0.243407
33416	-0.000859479	-0.144723
33457	-0.000935775	-0.0992653
33498	-0.000878553	-0.0739429
33539	-0.000859479	-0.0570504
33580	-0.000764108	-0.0459317
33621	-0.000783182	-0.0367468
33662	-0.000916701	-0.0306247
33703	-0.000840404	-0.0249402
33744	-0.000954849	-0.0201541
33785	-0.000802256	-0.0164707
33826	-0.000897627	-0.0121171
33867	-0.000992997	-0.0104266
33908	-0.000992997	-0.00756209
33949	-0.000954849	-0.00611612
33990	-0.000935775	-0.00369815
34031	-0.000897627	-0.00212452
34072	-0.000840404	0.000338492
34113	-0.000973923	0.00193181
34154	-0.000992997	0.00349835
34195	-0.000973923	0.00595538
34236	-0.000954849	0.0062901
34277	-0.000935775	0.00814643
34318	-0.000992997	0.00801267
34359	-0.000916701	0.00912469
34400	-0.000954849	0.0094541
34441	-0.00106929	0.0109395
34482	-0.000764108	0.0114879
34523	-0.00082133	0.0125293
34564	-0.00101207	0.0137973
34605	-0.000859479	0.0137398
34646	-0.000973923	0.0154449
34687	-0.000878553	0.0149203
34728	-0.000783182	0.0161257
34769	-0.000954849	0.0161954
34810	-0.000935775	0.0171096
34851	-0.000935775	0.0172616
34892	-0.000859479	0.0183289
34933	-0.000897627	0.0191511
34974	-0.000878553	0.0191937
35015	-0.00103115	0.0204112
35056	-0.000878553	0.0194861
35097	-0.000802256	0.0205982
35138	-0.000859479	0.0200227
35179	-0.000897627	0.0205699
35220	-0.00101207	0.0202578
35261	-0.000916701	0.0209469
35302	-0.00072596	0.0210707
35343	-0.000992997	0.021439
35384	-0.000973923	0.0224231
35425	-0.00082133	0.0217435
35466	-0.000935775	0.0228539
35507	-0.000764108	0.0219103
35548	-0.000764108	0.0224177
35589	-0.000840404	0.0219162
35630	-0.000935775	0.0225059
35671	-0.000935775	0.0224908
35712	-0.000897627	0.022985
35753	-0.000973923	0.0236132
35794	-0.000935775	0.0234552
35835	-0.000878553	0.0246726
35876	-0.000954849	0.0235721
35917	-0.000935775	0.0244139
35958	-0.000916701	0.023945
35999	-0.000916701	0.0244199
36040	-0.000859479	0.0241714
36081	-0.000878553	0.0245307
36122	-0.000973923	0.0247672
36163	-0.000916701	0.0247287
36204	-0.000935775	0.0255792
36245	-0.00101207	0.0246541
36286	-0.000973923	0.0255276
36327	-0.000935775	0.0246749
36368	-0.000878553	0.0249741
36409	-0.000992997	0.0243315
36450	-0.000916701	0.024632
36491	-0.000973923	0.0245575
36532	-0.00103115	0.0249691
36573	-0.000878553	0.0256882
36614	-0.000935775	0.0250986
36655	-0.00082133	0.0261847
36696	-0.000859479	0.0251988
36737	-0.000935775	0.0257628
36778	-0.00082133	0.0254025
36819	-0.00082133	0.025558
36860	-0.00082133	0.025191
36901	-0.000840404	0.0253019
36942	-0.000859479	0.0255072
36983	-0.000973923	0.0253871
37024	-0.000840404	0.026719
37065	-0.000840404	0.0257148
37106	-0.00105022	0.0265678
37147	-0.000897627	0.0258429
37188	-0.000745034	0.0260261
37229	-0.000878553	0.025814
37270	-0.000992997	0.0261421
37311	-0.000840404	0.0262431
37352	-0.000954849	0.0263042
37393	-0.000973923	0.0270834
37434	-0.000916701	0.0263467
37475	-0.000840404	0.0272558
37516	-0.00103115	0.0261132
37557	-0.000878553	0.0265694
37598	-0.00082133	0.026068
37639	-0.000764108	0.0265223
37680	-0.000878553	0.0263285
37721	-0.000706886	0.0265529
37762	-0.000916701	0.0268597
37803	-0.000992997	0.0264641
37844	-0.000992997	0.0273812
37885	-0.000916701	0.0263306
37926	-0.000935775	0.0269188
37967	-0.000764108	0.0262085
38008	-0.00101207	0.0264339
38049	-0.000954849	0.0261853
38090	-0.00072596	0.0265125
38131	-0.000935775	0.0265649
38172	-0.000745034	0.0263735
38213	-0.000840404	0.0273903
38254	-0.000992997	0.0265416
38295	-0.00082133	0.0273946
38336	-0.000935775	0.0264731
38377	-0.000897627	0.0267716
38418	-0.00112652	0.0263805
38459	-0.000916701	0.0265263
38500	-0.000859479	0.0264057
38541	-0.000973923	0.0264762
38582	-0.000897627	0.0269731
38623	-0.000897627	0.0263976
38664	-0.00082133	0.0273582
38705	-0.000954849	0.0263025
38746	-0.000878553	0.0266176
38787	-0.00106929	0.0260595
38828	-0.000878553	0.0261631
38869	-0.000840404	0.0259164
38910	-0.000878553	0.0260975
38951	-0.000745034	0.0263247
38992	-0.000916701	0.0260651
39033	-0.000840404	0.0268967
39074	-0.000935775	0.0257566
39115	-0.00103115	0.0264887
39156	-0.000878553	0.0259066
39197	-0.000935775	0.0259533
39238	-0.000897627	0.0256259
39279	-0.000840404	0.0258705
39320	-0.000859479	0.0257563
39361	-0.000897627	0.0257354
39402	-0.000992997	0.0264438
39443	-0.000992997	0.0258177
39484	-0.000783182	0.026569
39525	-0.000764108	0.025586
39566	-0.00082133	0.0259546
39607	-0.000954849	0.0254395
39648	-0.000859479	0.0256278
39689	-0.000954849	0.0254551
39730	-0.000973923	0.0254872
39771	-0.000916701	0.0258521
39812	-0.000840404	0.0253879
39853	-0.000878553	0.026239
39894	-0.000802256	0.02533
39935	-0.000859479	0.0256913
39976	-0.000916701	0.025106
40017	-0.000859479	0.0253282
40058	-0.000916701	0.0250442
40099	-0.000878553	0.0252226
40140	-0.000840404	0.025279
40181	-0.000935775	0.0250536
40222	-0.00082133	0.0257619
40263	-0.000878553	0.0249931
40304	-0.000992997	0.0256623
40345	-0.000897627	0.0248009
40386	-0.000859479	0.0249665
40427	-0.00105022	0.0245763
40468	-0.000916701	0.0246403
40509	-0.00082133	0.0245497
40550	-0.000935775	0.0246174
40591	-0.000935775	0.0252359
40632	-0.000859479	0.0246494
40673	-0.000840404	0.0255154
40714	-0.00082133	0.0247199
40755	-0.00082133	0.0249248
40796	-0.000878553	0.02433
40837	-0.000897627	0.024421
40878	-0.00082133	0.0243257
40919	-0.000935775	0.0243876
40960	-0.000840404	0.0246493
41001	-0.00105022	0.0244551
41042	-0.000992997	0.0251108
41083	-0.000954849	0.0243721
41124	-0.000973923	0.0248677
41165	-0.000973923	0.0241594
41206	-0.000935775	0.0242781
41247	-0.00082133	0.0238185
41288	-0.000916701	0.0239471
41329	-0.000859479	0.0240406
41370	-0.000954849	0.0239754
41411	-0.00110744	0.0245544
41452	-0.000935775	0.02398
41493	-0.000954849	0.024712
41534	-0.000935775	0.0237833
41575	-0.000954849	0.0239451
41616	-0.000916701	0.0236281
41657	-0.000916701	0.0236806
41698	-0.000973923	0.0235926
41739	-0.00082133	0.0235757
41780	-0.000954849	0.0237933
41821	-0.000973923	0.0235521
41862	-0.00082133	0.0241646
41903	-0.000878553	0.023396
41944	-0.000897627	0.0238613
41985	-0.000973923	0.0233036
42026	-0.000878553	0.0234197
42067	-0.000935775	0.0231346
42108	-0.000897627	0.0232199
42149	-0.000840404	0.0232023
42190	-0.000973923	0.023057
42231	-0.000935775	0.0235645
42272	-0.000878553	0.0229216
42313	-2.00087	-60.9615
42354	-2.00078	-23.7626
42395	-2.00091	-14.8941
42436	-2.00086	-10.7999
42477	-2.00084	-8.5458
42518	-2.00086	-7.08275
42559	-2.00095	-6.0755
42600	-2.00086	-5.31986
42641	-2.00084	-4.74429
42682	-2.00084	-4.29404
42723	-2.00091	-3.8988
42764	-2.0008	-3.60244
42805	-2.00087	-3.33092
42846	-2.00089	-3.12072
42887	-2.00089	-2.92505
42928	-2.00082	-2.77398
42969	-2.00076	-2.62771
43010	-2.00093	-2.50844
43051	-2.00082	-2.40993
43092	-2.00078	-2.30423
43133	-2.00089	-2.22654
43174	-2.00076	-2.14182
43215	-0.000916701	7.21963
43256	-0.000802256	1.84033
43297	-0.000859479	1.12213
43338	-0.00082133	0.85357
43379	-0.000859479	0.7219
43420	-0.000764108	0.640595
43461	-0.000783182	0.576641
43502	-0.000897627	0.541171
43543	-0.000840404	0.493606
43584	-0.000764108	0.468609
43625	-0.000916701	0.433859
43666	-0.000897627	0.414727
43707	-0.000954849	0.39088
43748	-0.000897627	0.375378
43789	-0.000840404	0.358854
43830	-0.000954849	0.343993
43871	-0.00082133	0.335357
43912	-0.000764108	0.318066
43953	-0.000878553	0.312986
43994	-0.000992997	0.296065
44035	-0.000916701	0.289745
44076	-0.000992997	0.277123
44117	-0.000935775	0.270824
44158	-0.000859479	0.261572
44199	-0.000859479	0.255074
44240	-0.000706886	0.250323
44281	-0.000897627	0.241777
44322	-0.000840404	0.240434
44363	-0.000992997	0.229874
44404	-0.000973923	0.227665
44445	-0.00106929	0.219016
44486	-0.000840404	0.216079
44527	-0.000916701	0.209752
44568	-0.000859479	0.20654
44609	-0.000992997	0.202799
44650	-0.000859479	0.1986
44691	-0.000802256	0.1981
44732	-0.000878553	0.191227
44773	-0.000878553	0.191187
44814	-0.000973923	0.184733
44855	-0.000973923	0.1835
44896	-0.000935775	0.178662
44937	-0.000878553	0.177089
44978	-0.000954849	0.174194
45019	-0.000954849	0.172051
45060	-0.000878553	0.171494
45101	-0.000973923	0.167423
45142	-0.00072596	0.168263
45183	-0.000916701	0.163111
45224	-0.000954849	0.162943
45265	-0.000992997	0.159077
45306	-0.000840404	0.158411
45347	-0.000859479	0.155884
45388	-0.000859479	0.154857
45429	-0.000859479	0.154281
45470	-0.000706886	0.152019
45511	-0.000916701	0.153213
45552	-0.000973923	0.149485
45593	-0.000935775	0.150619
45634	-0.000954849	0.147066
45675	-0.000878553	0.147318
45716	-0.000973923	0.145322
45757	-0.000840404	0.145369
45798	-0.00105022	0.144654
45839	-0.000878553	0.1437
45880	-0.000764108	0.144892
45921	1.49951	26.3064
45962	1.49951	11.9588
46003	1.49943	8.60343
46044	1.49953	7.1511
46085	1.49941	6.4169
46126	1.49951	5.89546
46167	1.49951	5.53638
46208	1.49953	5.23591
46249	1.49962	4.97405
46290	1.49949	4.72311
46331	1.49947	4.46839
46372	1.49974	4.28479
46413	1.49957	4.02687
46454	1.49955	3.854
46495	1.49945	3.6117
46536	1.49962	3.42278
46577	1.49951	3.19725
46618	1.49945	3.007
46659	1.4996	2.82375
46700	1.4994	2.6432
46741	1.49941	2.54173
46782	1.49951	2.41876
46823	1.49949	2.43504
46864	1.49959	2.34768
46905	1.49953	2.39528
46946	1.49955	2.29559
46987	1.49943	2.35038
47028	1.49953	2.24717
47069	1.49941	2.28749
47110	1.49953	2.20766
47151	1.49964	2.21072
47192	1.4997	2.16691
47233	1.49951	2.10736
47274	1.49953	2.10225
47315	1.49943	2.02371
47356	1.49951	2.0498
47397	1.49959	1.97154
47438	1.49953	2.01161
47479	1.49949	1.93857
47520	1.49943	1.96225
47561	1.49951	1.89682
47602	1.49953	1.87804
47643	1.49955	1.85195
47684	1.49938	1.80902
47725	1.49951	1.81756
47766	1.49947	1.77381
47807	1.49955	1.79743
47848	1.49959	1.74454
47889	1.49957	1.76426
47930	1.49955	1.70997
47971	1.49959	1.7164
48012	1.49951	1.68127
48053	1.49947	1.6672
48094	1.49951	1.65984
48135	1.49949	1.62842
48176	1.49959	1.63715
48217	1.4996	1.59884
48258	1.49962	1.61819
48299	1.49947	1.57957
48340	1.49959	1.59884
48381	1.49957	1.56028
48422	1.4996	1.55664
48463	1.49949	1.53694
48504	1.49959	1.51829
48545	1.49941	1.51852
48586	1.49938	1.49292
48627	-0.000878553	-0.852831
48668	-0.000992997	-0.340188
48709	-0.00106929	-0.200989
48750	-0.000840404	-0.136081
48791	-0.000897627	-0.0986946
48832	-0.000954849	-0.0751733
48873	-0.000859479	-0.0588818
48914	-0.000992997	-0.0475433
48955	-0.000935775	-0.0386523
48996	-0.00072596	-0.0318478
49037	-0.000973923	-0.0266739
49078	-0.000859479	-0.021438
49119	-0.000897627	-0.0184882
49160	-0.000783182	-0.0145853
49201	-0.000878553	-0.0128613
49242	-0.000802256	-0.0104593
49283	-0.000973923	-0.00863143
49324	-0.000897627	-0.00660394
49365	-0.000992997	-0.00496658
49406	-0.000992997	-0.00335397
49447	-0.000802256	-0.0016627
49488	-0.00082133	-0.000886852
49529	-0.000916701	0.00123613
49570	-0.000897627	0.00123144
49611	-0.000992997	0.0027053
49652	-0.000973923	0.00303882
49693	-0.000916701	0.00376839
49734	-0.000916701	0.00444509
49775	-0.000973923	0.00542559
49816	-0.000935775	0.00616699
49857	-0.000973923	0.00666272
49898	-0.000916701	0.00812053
49939	-0.000840404	0.00775111
49980	-0.000859479	0.00897735
50021	-0.000973923	0.00869485
50062	-0.000897627	0.00939258
50103	-0.000840404	0.0095904
50144	-0.000935775	0.0100401
50185	-0.00108837	0.0104931
50226	-0.000878553	0.0108257
50267	-0.000935775	0.0118058
50308	-0.000859479	0.0115355
50349	-0.000916701	0.0127967
50390	-0.000916701	0.0120626
50431	-0.000859479	0.0127004
50472	-0.000935775	0.0125139
50513	-0.000954849	0.0128525
50554	-0.00082133	0.0130748
50595	-0.00105022	0.0133171
50636	-0.000992997	0.0138592
50677	-0.000954849	0.0138238
50718	-0.000897627	0.0149508
50759	-0.000859479	0.0142181
50800	-0.00103115	0.0149822
50841	-0.000916701	0.0144718
50882	-0.000916701	0.0145785
50923	-0.00103115	0.01471
50964	-0.000878553	0.0150189
51005	-0.000916701	0.0152281
51046	-0.00101207	0.0153015
51087	-0.000973923	0.016155
51128	-0.000878553	0.0155081
51169	-0.000859479	0.0165389
51210	-0.000935775	0.0157695
51251	-0.000840404	0.0160658
51292	-0.000992997	0.0159039
51333	-0.000802256	0.0161067
51374	-0.000783182	0.0161903
51415	-0.000935775	0.0162785
51456	-0.000878553	0.016888
51497	-0.000935775	0.0164433
51538	-0.000916701	0.0175839
51579	-0.000935775	0.0166823
51620	-0.000935775	0.0172375
51661	-0.000878553	0.0166873
51702	-0.000916701	0.0168206
51743	-0.000954849	0.0168295
51784	-0.00101207	0.017007
51825	-0.000840404	0.017265
51866	-0.000973923	0.0171251
51907	-0.000840404	0.0180528
51948	-0.000897627	0.0173408
51989	-0.000992997	0.0182081
52030	-0.000992997	0.017464
52071	-0.000897627	0.0176737
52112	-0.000706886	0.0174819
52153	-0.00101207	0.0176532
52194	-0.00101207	0.017712
52235	-0.000973923	0.0177058
52276	-0.00103115	0.0183636
52317	-0.000916701	0.0177136
52358	-0.00103115	0.0187092
52399	-0.000973923	0.0177865
52440	-0.00106929	0.0181983
52481	-0.000840404	0.0178722
52522	-0.000859479	0.0178581
52563	-0.000897627	0.0179406
52604	-0.000935775	0.0180043
52645	-0.000897627	0.0182663
52686	-0.000897627	0.0181055
52727	-0.000802256	0.0189148
52768	-0.000764108	0.0181523
52809	-0.000802256	0.0187693
52850	-0.000897627	0.0181374
52891	-0.000973923	0.0181674
52932	-0.000897627	0.0180653
52973	-0.000935775	0.0181696
53014	-0.000973923	0.0183003
53055	-0.000954849	0.018276
53096	-0.000992997	0.0188907
53137	-0.000840404	0.0183308
53178	-0.00082133	0.0191524
53219	-0.000859479	0.0182606
53260	-0.000916701	0.0183653
53301	-0.00082133	0.0180958
53342	-0.000954849	0.0180748
53383	-0.000840404	0.0181267
53424	-0.00105022	0.0181896
53465	-0.000992997	0.018661
53506	-0.000916701	0.0182846
53547	-0.000935775	0.0191679
53588	-0.000935775	0.0184015
53629	-0.000783182	0.0187605
53670	-0.000897627	0.0182088
53711	-0.000973923	0.0180496
53752	-0.00103115	0.0181745
53793	-0.00105022	0.0181705
53834	-0.000992997	0.0183383
53875	-0.000973923	0.0180959
53916	-0.000878553	0.0188776
53957	-0.000916701	0.0181289
53998	-0.000802256	0.018797
54039	-0.000878553	0.018035
54080	-0.000859479	0.018197
54121	-0.000973923	0.0179598
54162	-0.000840404	0.0180069
54203	-0.000859479	0.0181065
54244	-0.000954849	0.0180482
54285	-0.000935775	0.0185281
54326	-0.000916701	0.0180579
54367	-0.000802256	0.0189437
54408	-0.000954849	0.0180193
54449	-0.000954849	0.0183458
54490	-0.000992997	0.0179355
54531	-0.000973923	0.0179974
54572	-0.000897627	0.0180308
54613	-0.000764108	0.0180287
54654	-0.000954849	0.0182267
54695	-0.00082133	0.018047
54736	-0.000878553	0.0188473
54777	-0.00101207	0.0180425
54818	-0.000878553	0.0185221
54859	-0.000916701	0.0179224
54900	-0.000878553	0.0179442
54941	-0.000935775	0.017794
54982	-0.000973923	0.0178083
55023	-0.000954849	0.0178032
55064	-0.000935775	0.017785
55105	-0.000935775	0.0184329
55146	-0.000954849	0.0178639
55187	-0.000840404	0.0185957
55228	-0.000954849	0.0178396
55269	-0.000802256	0.017943
55310	-0.000992997	0.0176251
55351	-0.000935775	0.0176539
55392	-0.00106929	0.0177441
55433	-0.000840404	0.0177255
55474	-0.00082133	0.0180696
55515	-0.000916701	0.0176742
55556	-0.000973923	0.0183662
55597	-0.000992997	0.0176264
55638	-0.00082133	0.0179609
55679	-0.00101207	0.0174256
55720	-0.000897627	0.0175341
55761	-0.000897627	0.0174598
55802	-0.000878553	0.0175379
55843	-0.000859479	0.0176138
55884	-0.000783182	0.0174786
55925	-0.000973923	0.0181588
55966	-0.000916701	0.0174934
56007	-0.000916701	0.0181559
56048	-0.000840404	0.0174753
56089	-0.000878553	0.0175244
56130	-0.000992997	0.0174029
56171	-0.000954849	0.0174073
56212	-0.000954849	0.0174623
56253	-0.000878553	0.0173012
56294	-0.000840404	0.0177003
56335	-0.00072596	0.0172949
56376	-0.000935775	0.0179563
56417	-0.000954849	0.0171729
56458	-0.00101207	0.0174106
56499	-0.000802256	0.0171581
56540	-0.000973923	0.0170307
56581	-0.000954849	0.0169854
56622	-0.000764108	0.0170297
56663	-0.000859479	0.0171953
56704	-0.00116466	0.0170698
56745	-0.000897627	0.0176786
56786	-0.000916701	0.0170009
56827	-0.000878553	0.0174874
56868	-0.000916701	0.0168972
56909	-0.000840404	0.01697
56950	-0.000859479	0.016841
56991	-0.000954849	0.0168744
57032	-0.000954849	0.0169518
57073	-0.000897627	0.0169543
57114	-0.000935775	0.0173256
57155	-0.000878553	0.0169308
57196	-0.000878553	0.0177292
57237	-0.000840404	0.0169232
57278	-0.000916701	0.0171307
57319	-0.00082133	0.0167917
57360	-0.000897627	0.0168464
57401	-0.000973923	0.0167898
57442	-0.000916701	0.0167065
57483	-0.000973923	0.0170259
57524	-0.000859479	0.0167411
57565	-0.000878553	0.0173349
57606	-2.0008	-71.9588
57647	-2.00091	-18.3517
57688	-2.00089	-10.8802
57729	-2.00087	-7.90817
57770	-2.00097	-6.25665
57811	-2.00078	-5.22403
57852	-2.00084	-4.50645
57893	-2.00084	-3.97828
57934	-2.00076	-3.57618
57975	-2.00084	-3.26141
58016	-2.00087	-3.01524
58057	-2.00091	-2.79574
58098	-2.00087	-2.63493
58139	-2.00074	-2.47521
58180	-2.0008	-2.3543
58221	-2.00074	-2.24425
58262	-2.00076	-2.14929
58303	-2.00101	-2.06487
58344	-2.00086	-1.9931
58385	-2.00091	-1.92967
58426	-2.00084	-1.86343
58467	-2.00093	-1.81534
58508	-0.000878553	12.4999
58549	-0.000935775	2.06554
58590	-0.000916701	1.10001
58631	-0.000859479	0.799902
58672	-0.000973923	0.65097
58713	-0.000992997	0.564788
58754	-0.00103115	0.509641
58795	-0.000840404	0.45984
58836	-0.000935775	0.432083
58877	-0.000878553	0.396886
58918	-0.000802256	0.376876
58959	-0.000916701	0.351973
59000	-0.000859479	0.335552
59041	-0.000897627	0.318002
59082	-0.000935775	0.304543
59123	-0.000916701	0.292386
59164	-0.000859479	0.279257
59205	-0.000840404	0.272067
59246	-0.000916701	0.258201
59287	-0.000897627	0.251957
59328	-0.000783182	0.239964
59369	-0.000878553	0.233606
59410	-0.00101207	0.224568
59451	-0.00082133	0.21852
59492	-0.000954849	0.211673
59533	-0.000935775	0.205551
59574	-0.000935775	0.201762
59615	-0.000973923	0.194217
59656	-0.000764108	0.191743
59697	-0.00101207	0.184201
59738	-0.000878553	0.18068
59779	-0.000935775	0.174911
59820	-0.000954849	0.171411
59861	-0.000802256	0.167132
59902	-0.000764108	0.163484
59943	-0.000897627	0.160999
59984	-0.00082133	0.156534
60025	-0.000973923	0.155433
60066	-0.000916701	0.150132
60107	-0.000859479	0.148625
60148	-0.000935775	0.14423
60189	-0.000859479	0.142176
60230	-0.000878553	0.138922
60271	-0.000897627	0.136915
60312	-0.000935775	0.134966
60353	-0.000783182	0.132147
60394	-0.000764108	0.131522
60435	-0.000859479	0.128011
60476	-0.000878553	0.127692
60517	-0.000897627	0.124275
60558	-0.000878553	0.12316
60599	-0.000916701	0.120906
60640	-0.00101207	0.119952
60681	-0.00082133	0.118245
60722	-0.000935775	0.117132
60763	-0.000783182	0.116787
60804	-0.000992997	0.114665
60845	-0.00082133	0.11516
60886	-0.000840404	0.112204
60927	-0.000916701	0.11173
60968	-0.000897627	0.109704
61009	-0.000954849	0.108975
61050	-0.00105022	0.107644
61091	-0.000973923	0.106755
61132	-0.000973923	0.105997
61173	-0.00082133	0.104251
61200	-0.000802256	0.103342