File: Data_26_Experiment/CA_254_C01.txt
time/s	Ewe/V	<I>/mA
1	2.49935	964.458
40	2.49909	162.905
79	2.49909	102.85
118	2.4992	66.8214
157	2.49891	50.3328
196	2.49926	40.9816
235	2.4992	35.1435
274	2.49909	31.1617
313	2.49912	28.6399
352	2.49918	27.0183
391	2.49916	26.3596
430	2.4992	26.1006
469	2.49912	26.2986
508	2.49916	26.7706
547	2.49922	27.415
586	2.49924	28.1637
625	2.49916	28.8276
664	2.4992	29.3963
703	2.49918	29.8686
742	2.4993	30.41
781	2.49918	30.9611
820	2.49933	31.3094
859	2.49926	31.6628
898	2.49912	32.1471
937	2.49926	32.5314
976	2.49912	32.9581
1015	2.49926	33.0603
1054	2.4992	33.3522
1093	2.49909	33.7786
1132	2.49928	33.9594
1171	2.4992	34.1497
1210	2.4992	34.134
1249	2.49922	34.3548
1288	2.49928	34.3618
1327	2.49916	34.4501
1366	2.49914	34.4257
1405	2.49922	34.2787
1444	2.49914	34.0855
1483	2.49918	33.9116
1522	2.49916	33.5831
1561	2.49922	33.1425
1600	2.49926	32.7041
1639	2.49924	32.1853
1678	2.49909	31.5345
1717	2.4992	30.8252
1756	2.49916	30.0888
1795	2.49922	29.3962
1833.95	-0.000823062	-7.14463
1872.95	-0.000994729	-1.93768
1911.95	-0.00086121	-0.949918
1950.95	-0.000803988	-0.590729
1989.95	-0.000823062	-0.459724
2028.95	-0.000823062	-0.377555
2067.95	-0.00076584	-0.352443
2106.95	-0.000899359	-0.344755
2145.95	-0.000899359	-0.360867
2184.95	-0.000784914	-0.373445
2223.95	-0.000899359	-0.377645
2262.95	-0.000956581	-0.375565
2301.95	-0.000880284	-0.374911
2340.95	-0.000880284	-0.371283
2379.95	-0.00086121	-0.363763
2418.95	-0.000823062	-0.366838
2457.95	-0.000956581	-0.36732
2496.95	-0.000918433	-0.365415
2535.95	-0.000823062	-0.355134
2574.95	-0.0010138	-0.357735
2613.95	-0.000689543	-0.365373
2652.95	-0.000975655	-0.373022
2691.95	-0.000899359	-0.369175
2730.95	-0.000823062	-0.37105
2769.95	-0.000918433	-0.373988
2808.95	-0.000956581	-0.3824
2847.95	-0.000899359	-0.379905
2886.95	-0.000899359	-0.374439
2925.95	-0.00076584	-0.374259
2964.95	-0.000918433	-0.375913
3003.95	-0.000880284	-0.381561
3042.95	-0.00086121	-0.378198
3081.95	-0.000899359	-0.382307
3120.95	-0.00086121	-0.388236
3159.95	-0.000803988	-0.389419
3198.95	-0.00086121	-0.380305
3237.95	-0.000880284	-0.376117
3276.95	-0.000880284	-0.378053
3315.95	-0.000784914	-0.381238
3354.95	-0.000994729	-0.380378
3393.95	-0.00076584	-0.375664
3432.95	-0.000899359	-0.376733
3471.95	-0.000918433	-0.379055
3510.95	-0.000899359	-0.3809
3549.95	-0.000803988	-0.373933
3588.95	-0.000994729	-0.375558
3627.95	-0.000880284	-0.375045
3666.95	-0.000880284	-0.376098
3705.95	-0.00103288	-0.368185
3744.95	-0.000708617	-0.368628
3783.95	-0.000880284	-0.372448
3822.95	-0.000823062	-0.373337
3861.95	-0.000823062	-0.367609
3900.95	-0.000803988	-0.362002
3939.95	-0.00086121	-0.363918
3978.95	-0.000823062	-0.366076
4017.95	-0.000823062	-0.366657
4056.95	-0.000842136	-0.357772
4095.95	-0.000746766	-0.360856
4134.95	-0.00105195	-0.362822
4173.95	-0.000918433	-0.36398
4212.95	-0.000975655	-0.356828
4251.95	-0.000880284	-0.36088
4290.95	-0.0010138	-0.363788
4329.95	-0.000918433	-0.362128
4368.95	-0.0010138	-0.354527
4407.95	-0.000880284	-0.347439
4446.95	-0.000918433	-0.347158
4485.95	-0.000880284	-0.345611
4524.95	-0.000823062	-0.344872
4563.95	-0.000842136	-0.341043
4602.95	-0.000727692	-0.342432
4641.95	-0.000899359	-0.339128
4680.95	-0.000842136	-0.342265
4719.95	-0.000842136	-0.331918
4758.95	-0.000727692	-0.328802
4797.95	-0.000880284	-0.3306
4836.95	-0.00086121	-0.332424
4875.95	-0.000956581	-0.327279
4914.95	-0.00086121	-0.325124
4953.95	-0.000899359	-0.327698
4992.95	-0.000880284	-0.326827
5031.95	-0.00076584	-0.328623
5070.95	-0.000975655	-0.320963
5109.95	-0.000899359	-0.319326
5148.95	-0.000899359	-0.316125
5187.95	-0.000784914	-0.314505
5226.95	-0.000937507	-0.307145
5265.95	-0.000918433	-0.305952
5304.95	-0.000823062	-0.307593
5343.95	-0.000918433	-0.306959
5382.95	-0.000899359	-0.299317
5421.95	-0.000842136	-0.294863
5460.95	-0.000880284	-0.295591
5499.95	-0.000994729	-0.296615
5538.95	-0.000937507	-0.296514
5577.95	-0.000937507	-0.289646
5616.95	-0.000899359	-0.290123
5655.95	-0.000880284	-0.289115
5694.95	-0.000899359	-0.287572
5733.95	-0.000842136	-0.278498
5772.95	-0.000918433	-0.277618
5811.95	-0.000918433	-0.282206
5850.95	-0.000803988	-0.286296
5889.95	-0.000803988	-0.281042
5928.95	-0.000918433	-0.276957
5967.95	-0.000880284	-0.274399
6006.95	-0.000880284	-0.27169
6045.95	-0.0010901	-0.266266
6084.95	-0.000918433	-0.257024
6123.95	-0.000918433	-0.253369
6162.95	-0.000803988	-0.251751
6201.95	-0.000956581	-0.251136
6240.95	-0.000823062	-0.24457
6279.95	-0.000956581	-0.24161
6318.95	-0.000880284	-0.240295
6357.95	-0.000880284	-0.240743
6396.95	-0.000746766	-0.236618
6435.95	-0.000899359	-0.233437
6474.95	-0.000956581	-0.232612
6513.95	-0.000651395	-0.237629
6552.95	-0.00076584	-0.246309
6591.95	-0.000784914	-0.250165
6630.95	-0.00103288	-0.250274
6669.95	-0.000880284	-0.247223
6708.95	-0.000823062	-0.241681
6747.95	-0.000918433	-0.228839
6786.95	-0.000918433	-0.225557
6825.95	-0.000746766	-0.22533
6864.95	-0.000899359	-0.223027
6903.95	-0.000842136	-0.214346
6942.95	-0.000727692	-0.213532
6981.95	-0.000918433	-0.215699
7020.95	-0.000899359	-0.215911
7059.95	-0.000880284	-0.214908
7098.95	-0.000956581	-0.212636
7137.95	-0.000899359	-0.213493
7176.95	-0.000784914	-0.208718
7215.95	-0.000975655	-0.197878
7254.95	-0.000880284	-0.1818
7293.95	-0.000918433	-0.186192
7332.95	-0.000727692	-0.190569
7371.95	-0.000937507	-0.188321
7410.95	-0.000784914	-0.18393
7449.95	-0.000918433	-0.181196
7488.95	-0.000803988	-0.182424
7527.95	-0.000937507	-0.183822
7566.95	-0.000899359	-0.179859
7605.95	-0.000918433	-0.170593
7644.95	-0.000746766	-0.168652
7683.95	-0.000803988	-0.169876
7722.95	-0.000746766	-0.17201
7761.95	-0.0010138	-0.166373
7800.95	-0.000880284	-0.163185
7839.95	-0.000803988	-0.161948
7878.95	-0.00086121	-0.162024
7917.95	-0.0010138	-0.158791
7956.95	-0.000823062	-0.159392
7995.95	-0.00086121	-0.157188
8034.95	-0.000842136	-0.157088
8073.95	-0.000823062	-0.156782
8112.95	-0.00076584	-0.153286
8151.95	-0.000899359	-0.152778
8190.95	-0.000880284	-0.151792
8229.95	-0.000918433	-0.148499
8268.95	-0.000842136	-0.141929
8307.95	-0.000880284	-0.13977
8346.95	-0.000823062	-0.139038
8385.95	-0.000842136	-0.137366
8424.95	-0.000899359	-0.136205
8463.95	-0.000823062	-0.13515
8502.95	-0.000803988	-0.129335
8541.95	-0.000803988	-0.134083
8580.95	-0.000918433	-0.133621
8619.95	-0.000746766	-0.13383
8658.95	-0.000727692	-0.134421
8697.95	-0.000880284	-0.132935
8736.95	-0.000956581	-0.130307
8775.95	-0.000784914	-0.128777
8814.95	-0.00086121	-0.124306
8853.95	-0.000784914	-0.115759
8892.95	-0.000899359	-0.112669
8931.95	-0.000918433	-0.112323
8970.95	-0.00105195	-0.110362
9009.95	-0.000842136	-0.11044
9048.95	-0.000746766	-0.110226
9087.95	-0.000918433	-0.107518
9126.95	-0.000784914	-0.101766
9165.95	-0.000956581	-0.0997043
9204.95	-0.000708617	-0.106104
9243.95	-0.000937507	-0.111511
9282.95	-0.000937507	-0.107046
9321.95	-0.000842136	-0.102834
9360.95	-0.000842136	-0.0998878
9399.95	-0.000956581	-0.0965413
9438.95	-0.000994729	-0.0928762
9477.95	-0.000803988	-0.0947703
9516.95	-0.000899359	-0.09917
9555.95	-0.000956581	-0.0929233
9594.95	-0.000842136	-0.0874376
9633.95	-0.000784914	-0.0870352
9672.95	-0.000727692	-0.0881299
9711.95	-0.000842136	-0.0889441
9750.95	-0.000880284	-0.0885702
9789.95	-0.00086121	-0.0852733
9828.95	-0.000937507	-0.0824236
9867.95	-0.000708617	-0.078756
9906.95	-0.000899359	-0.0751183
9945.95	-0.000803988	-0.0735041
9984.95	-0.00076584	-0.0723699
10024	-0.000956581	-0.0701727
10063	-0.000918433	-0.073586
10102	-0.000803988	-0.079496
10141	-0.000899359	-0.0808907
10180	-0.000823062	-0.0792001
10219	-0.00076584	-0.0755288
10258	-0.000880284	-0.0768212
10297	-0.00086121	-0.0795508
10336	-0.000842136	-0.0789303
10375	-0.000842136	-0.0768503
10414	-0.000937507	-0.0725149
10453	-0.00086121	-0.0663725
10492	-0.000823062	-0.0616778
10531	-0.000803988	-0.0578045
10570	-0.000918433	-0.0590181
10609	-0.00086121	-0.0619102
10648	-0.000880284	-0.0622309
10687	-0.000784914	-0.0604949
10726	-0.00086121	-0.0592862
10765	-0.000937507	-0.0596194
10804	-2.00103	-104.45
10843	-2.00106	-55.2796
10882	-2.00093	-37.6456
10921	-2.00097	-29.1332
10960	-2.00097	-23.7103
10999	-2.00095	-20.1657
11038	-2.00116	-17.7475
11077	-2.00087	-15.8593
11116	-2.00093	-14.3283
11155	-2.00089	-13.0608
11194	-2.00089	-12.1735
11233	-2.00084	-11.2611
11272	-2.00095	-10.5608
11311	-2.00097	-10.1212
11350	-2.00099	-9.54643
11389	-2.00089	-9.10675
11428	-2.00095	-8.75535
11467	-2.00087	-8.4633
11506	-2.00099	-8.15045
11545	-2.00105	-7.93689
11584	-2.00093	-7.68505
11623	-2.00089	-7.59877
11662	-2.00087	-7.42566
11701	-0.000858668	254.005
11740	-0.00091589	2.22361
11779	-0.000934964	0.987911
11818	-0.000839594	0.667365
11857	-0.00101126	0.537719
11896	-0.000744223	0.466135
11935	-0.000896816	0.427899
11974	-0.000934964	0.383832
12013	-0.000934964	0.356628
12052	-0.00091589	0.333081
12091	-0.00110663	0.318915
12130	-0.000973113	0.300897
12169	-0.000877742	0.285633
12208	-0.00091589	0.2728
12247	-0.000992187	0.262992
12286	-0.000896816	0.254826
12325	-0.000858668	0.239549
12364	-0.00106848	0.233439
12403	-0.000877742	0.223651
12442	-0.000896816	0.224243
12481	-0.00103033	0.210629
12520	-0.000973113	0.205162
12559	-0.000839594	0.195806
12598	-0.000896816	0.19419
12637	-0.000934964	0.186897
12676	-0.000858668	0.182358
12715	-0.000973113	0.177165
12754	-0.000973113	0.172228
12793	-0.000877742	0.171329
12832	-0.000877742	0.165707
12871	-0.000896816	0.163403
12910	-0.000954038	0.15996
12949	-0.00091589	0.162628
12988	-0.00112571	0.153559
13027	-0.00091589	0.150907
13066	-0.000992187	0.148381
13105	-0.00082052	0.150472
13144	-0.00101126	0.144636
13183	-0.000934964	0.141171
13222	-0.000687001	0.140637
13261	-0.000858668	0.140698
13300	-0.000992187	0.139058
13339	-0.00082052	0.13437
13378	-0.000954038	0.134016
13417	-0.00091589	0.131844
13456	-0.000839594	0.133734
13495	-0.000801446	0.127929
13534	-0.000896816	0.127123
13573	-0.00082052	0.125574
13612	-0.000934964	0.127746
13651	-0.000801446	0.123932
13690	-0.000954038	0.122364
13729	-0.000896816	0.121366
13768	-0.000934964	0.121833
13807	-0.000954038	0.121039
13846	-0.000954038	0.117906
13885	-0.00091589	0.117052
13924	-0.000992187	0.115388
13963	-0.00103033	0.118568
14002	-0.00091589	0.114199
14041	-0.000934964	0.114111
14080	-0.000896816	0.112431
14119	-0.000763297	0.114418
14158	-0.00106848	0.11072
14197	-0.000896816	0.1091
14236	-0.000954038	0.10852
14275	-0.000858668	0.108641
14314	-0.000877742	0.108955
14353	-0.00106848	0.107652
14392	-0.000954038	0.107917
14431	2.49918	105.232
14470	2.49912	54.4843
14509	2.49918	43.65
14548	2.49916	38.1974
14587	2.49928	34.627
14626	2.49928	31.5166
14665	2.49932	28.8908
14704	2.49912	27.1514
14743	2.49903	25.1762
14782	2.49907	23.7689
14821	2.49916	22.9765
14860	2.49912	22.7228
14899	2.49924	22.8696
14938	2.49914	23.5333
14977	2.49912	24.5827
15016	2.49911	25.8295
15055	2.49897	26.9513
15094	2.49937	27.2223
15133	2.49916	27.902
15172	2.49911	27.7014
15211	2.49939	27.6872
15250	2.49916	27.7836
15289	2.49926	27.7043
15328	2.4992	27.8879
15367	2.49914	27.8547
15406	2.49922	27.6867
15445	2.4992	27.7158
15484	2.49909	27.6996
15523	2.49912	27.9408
15562	2.4992	27.8303
15601	2.49918	27.853
15640	2.49911	27.7852
15679	2.49914	27.7764
15718	2.49911	27.9053
15757	2.49926	27.8275
15796	2.49918	27.8265
15835	2.49914	27.7927
15874	2.49918	28.0766
15913	2.49926	28.0631
15952	2.49905	27.8709
15991	2.49922	27.8747
16030	2.49916	27.7831
16069	2.49922	27.6665
16108	2.49924	27.7755
16147	2.49918	27.66
16186	2.49907	27.5734
16225	-0.000994729	-6.85914
16264	-0.000994729	-1.76669
16303	-0.0010138	-0.977553
16342	-0.00076584	-0.674355
16381	-0.000823062	-0.534729
16420	-0.000975655	-0.463492
16459	-0.000899359	-0.427903
16498	-0.000899359	-0.416761
16537	-0.000899359	-0.402535
16576	-0.00086121	-0.401347
16615	-0.000918433	-0.403144
16654	-0.000880284	-0.410161
16693	-0.000937507	-0.402526
16732	-0.000784914	-0.40542
16771	-0.000823062	-0.411902
16810	-0.000803988	-0.419638
16849	-0.000746766	-0.417852
16888	-0.000880284	-0.419501
16927	-0.000937507	-0.420009
16966	-0.000956581	-0.42072
17005	-0.000842136	-0.422848
17044	-0.000880284	-0.41906
17083	-0.000899359	-0.419457
17122	-0.000899359	-0.421267
17161	-0.00086121	-0.425127
17200	-0.00086121	-0.419208
17239	-0.000880284	-0.420045
17278	-0.000880284	-0.423412
17317	-0.000880284	-0.427376
17356	-0.000899359	-0.421261
17395	-0.00086121	-0.41634
17434	-0.000899359	-0.417295
17473	-0.000880284	-0.418402
17512	-0.000956581	-0.415766
17551	-0.000823062	-0.406602
17590	-0.000975655	-0.407321
17629	-0.00086121	-0.406353
17668	-0.000803988	-0.407556
17707	-0.000899359	-0.398831
17746	-0.000746766	-0.40126
17785	-0.000937507	-0.401764
17824	-0.000956581	-0.399484
17863	-0.000918433	-0.38886
17902	-0.000937507	-0.382191
17941	-0.00086121	-0.381863
17980	-0.000823062	-0.380002
18019	-0.000956581	-0.373328
18058	-0.00086121	-0.363216
18097	-0.00086121	-0.362967
18136	-0.000842136	-0.363763
18175	-0.000918433	-0.365795
18214	-0.000880284	-0.358857
18253	-0.0010138	-0.362553
18292	-0.000918433	-0.3631
18331	-0.000803988	-0.360465
18370	-0.000918433	-0.349539
18409	-0.000803988	-0.344281
18448	-0.000842136	-0.343626
18487	-0.000899359	-0.344571
18526	-0.000899359	-0.339399
18565	-0.00086121	-0.330453
18604	-0.000880284	-0.330974
18643	-0.000803988	-0.332994
18682	-0.000937507	-0.32856
18721	-0.000727692	-0.316233
18760	-0.00086121	-0.31649
18799	-0.000899359	-0.31543
18838	-0.0010138	-0.31599
18877	-0.000823062	-0.310581
18916	-0.000784914	-0.311088
18955	-0.000975655	-0.309976
18994	-0.000918433	-0.30922
19033	-0.000975655	-0.308822
19072	-0.000956581	-0.30564
19111	-0.000956581	-0.305386
19150	-0.000880284	-0.301318
19189	-0.000899359	-0.294711
19228	-0.00086121	-0.281354
19267	-0.000823062	-0.281284
19306	-0.000880284	-0.283988
19345	-0.000823062	-0.287296
19384	-0.00076584	-0.281998
19423	-0.000727692	-0.279395
19462	-0.000803988	-0.275169
19501	-0.000842136	-0.27028
19540	-0.000784914	-0.265186
19579	-0.00076584	-0.259747
19618	-0.00086121	-0.260297
19657	-0.000784914	-0.259721
19696	-0.000937507	-0.256869
19735	-0.000803988	-0.247638
19774	-0.000937507	-0.24634
19813	-0.000937507	-0.246098
19852	-0.000842136	-0.246406
19891	-0.00086121	-0.239702
19930	-0.000956581	-0.234778
19969	-0.000937507	-0.232042
20008	-0.000918433	-0.230701
20047	-0.000880284	-0.227914
20086	-0.000880284	-0.223555
20125	-0.000803988	-0.223751
20164	-0.000918433	-0.223165
20203	-0.000842136	-0.221894
20242	-0.000746766	-0.217034
20281	-0.0010901	-0.218415
20320	-0.000956581	-0.219627
20359	-0.000823062	-0.219114
20398	-0.000880284	-0.212729
20437	-0.000880284	-0.209518
20476	-0.00086121	-0.208897
20515	-0.000918433	-0.20851
20554	-0.000994729	-0.206119
20593	-0.000880284	-0.203285
20632	-0.000975655	-0.203756
20671	-0.000994729	-0.203497
20710	-0.00086121	-0.200898
20749	-0.000823062	-0.193799
20788	-0.000899359	-0.191446
20827	-0.000842136	-0.191024
20866	-0.00086121	-0.190483
20905	-0.000937507	-0.184837
20944	-0.000823062	-0.180539
20983	-0.00086121	-0.17736
21022	-0.0010138	-0.173494
21061	-0.000880284	-0.169358
21100	-0.00086121	-0.166166
21139	-0.000784914	-0.166365
21178	-0.000880284	-0.165988
21217	-0.00086121	-0.165389
21256	-0.00086121	-0.162197
21295	-0.000823062	-0.161862
21334	-0.000918433	-0.161484
21373	-0.00086121	-0.160869
21412	-0.000880284	-0.15774
21451	-0.000842136	-0.155182
21490	-0.000899359	-0.153737
21529	-0.000803988	-0.15253
21568	-0.000842136	-0.14863
21607	-0.0010138	-0.144343
21646	-0.000956581	-0.142837
21685	-0.000937507	-0.142251
21724	-0.000994729	-0.141775
21763	-0.000937507	-0.139715
21802	-0.000918433	-0.138361
21841	-0.000975655	-0.137016
21880	-0.000918433	-0.136048
21919	-0.000956581	-0.131143
21958	-0.000899359	-0.130432
21997	-0.000918433	-0.13278
22036	-0.000746766	-0.135554
22075	-0.00076584	-0.135665
22114	-0.000956581	-0.133616
22153	-0.000823062	-0.133502
22192	-0.000975655	-0.132383
22231	-0.000880284	-0.130053
22270	-0.000823062	-0.126987
22309	-0.00086121	-0.12688
22348	-0.000842136	-0.127277
22387	-0.000746766	-0.127828
22426	-0.00076584	-0.127563
22465	-0.000746766	-0.125477
22504	-0.00086121	-0.119429
22543	-0.000823062	-0.112811
22582	-0.000956581	-0.109031
22621	-0.00086121	-0.105372
22660	-0.000918433	-0.103988
22699	-0.000842136	-0.102834
22738	-0.000918433	-0.101581
22777	-0.00107103	-0.0991524
22816	-0.000746766	-0.100175
22855	-0.000937507	-0.0997755
22894	-0.00103288	-0.0992597
22933	-0.000899359	-0.0981447
22972	-0.000823062	-0.0970419
23011	-0.000975655	-0.0948506
23050	-0.000956581	-0.0927443
23089	-0.000784914	-0.0918275
23128	-0.0010138	-0.0880127
23167	-0.000803988	-0.0858505
23206	-0.00086121	-0.0849077
23245	-0.000899359	-0.0852581
23284	-0.000842136	-0.0843095
23323	-0.000880284	-0.0823212
23362	-0.000899359	-0.0804657
23401	-0.00076584	-0.0794954
23440	-0.000842136	-0.0788955
23479	-0.00076584	-0.0790053
23518	-0.000899359	-0.0805597
23557	-0.00086121	-0.080772
23596	-0.000937507	-0.0782416
23635	-0.000975655	-0.0768432
23674	-0.000880284	-0.0768741
23713	-0.000823062	-0.0762415
23752	-0.000937507	-0.0740846
23791	-0.000823062	-0.0705926
23830	-0.000918433	-0.0682942
23869	-0.000899359	-0.0672377
23908	-0.000880284	-0.0659091
23947	-0.000899359	-0.063724
23986	-0.00086121	-0.0613695
24025	-0.000918433	-0.060639
24064	-0.000937507	-0.0590292
24103	-0.000803988	-0.0574723
24142	-0.0010138	-0.05573
24181	-0.000842136	-0.05554
24220	-0.000823062	-0.0552281
24259	-0.000899359	-0.0544243
24298	-0.000899359	-0.052247
24337	-0.000803988	-0.0505915
24376	-0.000918433	-0.0492499
24415	-0.000746766	-0.0477242
24454	-0.00086121	-0.0476755
24493	-0.00086121	-0.0481975
24532	-0.000842136	-0.0488855
24571	-0.00086121	-0.0485907
24610	-0.000956581	-0.0479227
24649	-0.00086121	-0.046218
24688	-0.00086121	-0.0451141
24727	-0.000803988	-0.0447035
24766	-0.000823062	-0.0449372
24805	-0.000842136	-0.0442053
24844	-0.000918433	-0.0431912
24883	-0.000823062	-0.0423919
24922	-0.000899359	-0.0421182
24961	-0.000918433	-0.042806
25000	-0.00105195	-0.0438497
25039	-0.000803988	-0.0443961
25078	-0.000784914	-0.0414879
25117	-0.000823062	-0.0405945
25156	-0.000842136	-0.0406708
25195	-0.000918433	-0.0397045
25234	-2.00097	-36.7308
25273	-2.00093	-25.1802
25312	-2.00095	-19.6494
25351	-2.00084	-16.5287
25390	-2.00093	-14.7183
25429	-2.00095	-13.2741
25468	-2.00082	-12.2126
25507	-2.00087	-11.4361
25546	-2.00087	-10.7401
25585	-2.00099	-10.324
25624	-2.00082	-10.1275
25663	-2.00101	-9.71139
25702	-2.00093	-9.39739
25741	-2.00087	-9.16012
25780	-2.00093	-8.82833
25819	-2.00097	-8.62559
25858	-2.00091	-8.46803
25897	-2.00095	-8.36691
25936	-2.00089	-8.21692
25975	-2.00099	-8.01979
26014	-2.00089	-8.0045
26053	-2.00095	-7.84842
26092	-2.00101	-7.81621
26131	-0.000877742	3.6843
26170	-0.00091589	1.25411
26209	-0.000839594	0.790663
26248	-0.000877742	0.618507
26287	-0.000858668	0.524221
26326	-0.00091589	0.455774
26365	-0.000839594	0.412707
26404	-0.000896816	0.381922
26443	-0.000934964	0.362058
26482	-0.000954038	0.333016
26521	-0.000954038	0.313125
26560	-0.000782372	0.296786
26599	-0.000801446	0.28607
26638	-0.00091589	0.269943
26677	-0.00101126	0.255332
26716	-0.000954038	0.243538
26755	-0.000877742	0.239153
26794	-0.000934964	0.233918
26833	-0.000934964	0.226577
26872	-0.000896816	0.220854
26911	-0.000954038	0.212457
26950	-0.000973113	0.209329
26989	-0.000954038	0.201004
27028	-0.000934964	0.196376
27067	-0.000954038	0.1906
27106	-0.000801446	0.190302
27145	-0.000954038	0.182676
27184	-0.00091589	0.178125
27223	-0.00110663	0.174312
27262	-0.000934964	0.172926
27301	-0.000877742	0.169501
27340	-0.00103033	0.164414
27379	-0.000877742	0.161889
27418	-0.000839594	0.15978
27457	-0.000877742	0.159554
27496	-0.000954038	0.154449
27535	-0.000877742	0.152231
27574	-0.00101126	0.148193
27613	-0.000858668	0.149191
27652	-0.00091589	0.144975
27691	-0.000954038	0.142369
27730	-0.00091589	0.139786
27769	-0.00082052	0.139039
27808	-0.000896816	0.136691
27847	-0.000992187	0.134282
27886	-0.000934964	0.132835
27925	-0.000992187	0.130557
27964	-0.000954038	0.129837
28003	-0.000896816	0.126096
28042	-0.00101126	0.125203
28081	-0.00103033	0.123772
28120	-0.000839594	0.12482
28159	-0.000858668	0.121355
28198	-0.000934964	0.119842
28237	-0.000973113	0.118595
28276	-0.000934964	0.119566
28315	-0.000896816	0.117575
28354	-0.000896816	0.11724
28393	-0.000896816	0.11585
28432	-0.000973113	0.114164
28471	-0.000896816	0.112929
28510	-0.000934964	0.109331
28549	-0.000973113	0.108829
28588	-0.000896816	0.108556
28627	-0.00104941	0.10978
28666	-0.000973113	0.10722
28705	-0.000973113	0.106667
28744	-0.000992187	0.106728
28783	-0.00091589	0.107576
28822	2.49918	96.0176
28861	2.49916	54.409
28900	2.49903	41.3678
28939	2.49912	35.3858
28978	2.49914	32.3452
29017	2.4992	30.6021
29056	2.4993	29.8315
29095	2.49914	29.8317
29134	2.49928	29.1845
29173	2.49912	29.2112
29212	2.49922	28.9913
29251	2.49922	29.1831
29290	2.4992	29.1205
29329	2.49918	29.3367
29368	2.49924	29.4238
29407	2.49911	29.3401
29446	2.49918	29.2346
29485	2.4992	28.8398
29524	2.49926	28.9029
29563	2.4992	28.808
29602	2.49912	28.3785
29641	2.49907	28.1083
29680	2.49912	27.8852
29719	2.49918	27.6412
29758	2.49916	27.5154
29797	2.49928	27.0056
29836	2.49922	26.6706
29875	2.49912	26.5177
29914	2.4993	26.3545
29953	2.49918	26.2979
29992	2.49916	25.8962
30031	2.49918	26.1578
30070	2.4992	25.9742
30109	2.49922	26.0259
30148	2.49922	26.2458
30187	2.49897	26.1437
30226	2.49907	26.3375
30265	2.49907	26.5742
30304	2.49918	26.6175
30343	2.49922	26.7445
30382	2.49916	27.003
30421	2.4992	27.1992
30460	2.49918	27.3239
30499	2.49912	27.1248
30538	2.49916	27.5757
30577	2.49911	27.6741
30616	-0.000880284	-8.034
30655	-0.000918433	-1.705
30694	-0.0010138	-0.938235
30733	-0.000842136	-0.695769
30772	-0.000880284	-0.578046
30811	-0.00086121	-0.514114
30850	-0.000803988	-0.463164
30889	-0.000803988	-0.43478
30928	-0.00086121	-0.423071
30967	-0.000975655	-0.429644
31006	-0.000918433	-0.433581
31045	-0.000842136	-0.43897
31084	-0.000899359	-0.4491
31123	-0.000842136	-0.448828
31162	-0.000956581	-0.448924
31201	-0.000880284	-0.443218
31240	-0.000842136	-0.449303
31279	-0.000842136	-0.457021
31318	-0.000784914	-0.467005
31357	-0.000823062	-0.461768
31396	-0.000975655	-0.4544
31435	-0.000994729	-0.454465
31474	-0.000899359	-0.455533
31513	-0.000823062	-0.450312
31552	-0.000823062	-0.447806
31591	-0.000899359	-0.44847
31630	-0.00086121	-0.450467
31669	-0.00076584	-0.455785
31708	-0.000937507	-0.450456
31747	-0.000880284	-0.453781
31786	-0.000842136	-0.455646
31825	-0.000880284	-0.454238
31864	-0.000937507	-0.441012
31903	-0.000842136	-0.443646
31942	-0.000937507	-0.448156
31981	-0.000975655	-0.450438
32020	-0.00086121	-0.447207
32059	-0.000880284	-0.438402
32098	-0.000784914	-0.429807
32137	-0.000918433	-0.426546
32176	-0.000746766	-0.428828
32215	-0.000918433	-0.425854
32254	-0.000899359	-0.428703
32293	-0.000842136	-0.427932
32332	-0.000784914	-0.425147
32371	-0.000880284	-0.412184
32410	-0.000842136	-0.408168
32449	-0.000937507	-0.409817
32488	-0.000975655	-0.415335
32527	-0.000803988	-0.412479
32566	-0.0010138	-0.409277
32605	-0.000899359	-0.408353
32644	-0.000880284	-0.404431
32683	-0.00086121	-0.400261
32722	-0.000956581	-0.392867
32761	-0.000994729	-0.393035
32800	-0.00086121	-0.392876
32839	-0.000784914	-0.392136
32878	-0.00076584	-0.381586
32917	-0.000880284	-0.378604
32956	-0.000784914	-0.372514
32995	-0.000880284	-0.368938
33034	-0.000918433	-0.361123
33073	-0.000994729	-0.356179
33112	-0.000975655	-0.355481
33151	-0.000918433	-0.354029
33190	-0.000918433	-0.350851
33229	-0.000803988	-0.344227
33268	-0.000823062	-0.344589
33307	-0.000918433	-0.34358
33346	-0.000842136	-0.341996
33385	-0.000899359	-0.333328
33424	-0.000918433	-0.330761
33463	-0.000918433	-0.330133
33502	-0.000880284	-0.330802
33541	-0.000803988	-0.325471
33580	-0.000918433	-0.322127
33619	-0.000880284	-0.32273
33658	-0.00086121	-0.32053
33697	-0.000880284	-0.313648
33736	-0.0010138	-0.304912
33775	-0.000803988	-0.30198
33814	-0.000918433	-0.299944
33853	-0.000899359	-0.298791
33892	-0.000880284	-0.289777
33931	-0.000842136	-0.286661
33970	-0.00076584	-0.285233
34009	-0.000803988	-0.283653
34048	-0.000899359	-0.277544
34087	-0.000975655	-0.275496
34126	-0.000823062	-0.27648
34165	-0.000956581	-0.276978
34204	-0.000823062	-0.273672
34243	-0.000899359	-0.267617
34282	-0.000975655	-0.266192
34321	-0.000918433	-0.265293
34360	-0.000937507	-0.264829
34399	-0.000823062	-0.259028
34438	-0.000880284	-0.257182
34477	-0.000899359	-0.255622
34516	-0.000994729	-0.255159
34555	-0.00086121	-0.250933
34594	-0.000727692	-0.247989
34633	-0.000994729	-0.246327
34672	-0.00086121	-0.243434
34711	-0.000823062	-0.239556
34750	-0.00086121	-0.234863
34789	-0.000880284	-0.235843
34828	-0.000956581	-0.238274
34867	-0.000899359	-0.23774
34906	-0.00086121	-0.229388
34945	-0.000899359	-0.225294
34984	-0.000937507	-0.223664
35023	-0.00076584	-0.223069
35062	-0.00076584	-0.220431
35101	-0.000880284	-0.219559
35140	-0.00086121	-0.219071
35179	-0.000784914	-0.218419
35218	-0.000975655	-0.217411
35257	-0.000784914	-0.21415
35296	-0.000956581	-0.213301
35335	-0.000994729	-0.210519
35374	-0.00086121	-0.206791
35413	-0.00076584	-0.20022
35452	-0.000918433	-0.197999
35491	-0.00076584	-0.197341
35530	-0.000899359	-0.197341
35569	-0.000956581	-0.194295
35608	-0.0010138	-0.191868
35647	-0.000823062	-0.190462
35686	-0.000803988	-0.189228
35725	-0.000899359	-0.189294
35764	-0.000899359	-0.188787
35803	-0.000975655	-0.189387
35842	-0.000975655	-0.18624
35881	-0.000918433	-0.18328
35920	-0.000994729	-0.176933
35959	-0.000803988	-0.174194
35998	-0.000899359	-0.172446
36037	-0.0010138	-0.170923
36076	-0.000956581	-0.166458
36115	-0.000803988	-0.163811
36154	-0.000994729	-0.162938
36193	-0.000727692	-0.162295
36232	-0.000880284	-0.160748
36271	-0.000899359	-0.157332
36310	-0.000880284	-0.156329
36349	-0.000994729	-0.15569
36388	-0.00086121	-0.155717
36427	-0.000975655	-0.152612
36466	-0.000899359	-0.150983
36505	-0.00076584	-0.150209
36544	-0.000823062	-0.149465
36583	-0.000746766	-0.14718
36622	-0.000956581	-0.145624
36661	-0.000956581	-0.144971
36700	-0.000823062	-0.143635
36739	-0.000918433	-0.141145
36778	-0.000899359	-0.138224
36817	-0.000842136	-0.137602
36856	-0.000937507	-0.137309
36895	-0.000880284	-0.137208
36934	-0.000823062	-0.133982
36973	-0.000937507	-0.132098
37012	-0.000880284	-0.130587
37051	-0.000784914	-0.129254
37090	-0.000994729	-0.126701
37129	-0.000880284	-0.124572
37168	-0.000918433	-0.123228
37207	-0.000994729	-0.121706
37246	-0.000823062	-0.119754
37285	-0.00086121	-0.117448
37324	-0.000842136	-0.116811
37363	-0.000746766	-0.116093
37402	-0.000899359	-0.115901
37441	-0.000746766	-0.114209
37480	-0.000823062	-0.113551
37519	-0.00086121	-0.112945
37558	-0.000823062	-0.112092
37597	-0.000842136	-0.11004
37636	-0.000746766	-0.107794
37675	-0.000842136	-0.106373
37714	-0.000823062	-0.105612
37753	-0.000975655	-0.104916
37792	-0.000880284	-0.103666
37831	-0.000823062	-0.10335
37870	-0.000823062	-0.102156
37909	-0.00103288	-0.101467
37948	-0.000937507	-0.100015
37987	-0.000956581	-0.0996969
38026	-0.000880284	-0.0988146
38065	-0.000803988	-0.0964668
38104	-0.000937507	-0.0940022
38143	-0.000880284	-0.0923027
38182	-0.00086121	-0.0916933
38221	-0.00076584	-0.0907479
38260	-0.000823062	-0.0895842
38299	-0.000918433	-0.0876377
38338	-0.000918433	-0.0866264
38377	-0.000994729	-0.0860215
38416	-0.0010901	-0.0850919
38455	-0.000803988	-0.083463
38494	-0.000956581	-0.0825149
38533	-0.000823062	-0.0818081
38572	-0.000823062	-0.0809185
38611	-0.000803988	-0.0798643
38650	-0.000880284	-0.0794611
38689	-0.000823062	-0.0800324
38728	-0.000899359	-0.0800746
38767	-0.000880284	-0.0786413
38806	-0.000956581	-0.0760669
38845	-0.0010138	-0.0743178
38884	-0.000823062	-0.073494
38923	-0.000842136	-0.0727136
38962	-0.000803988	-0.0710578
39001	-0.000880284	-0.0700216
39040	-0.00086121	-0.0688362
39079	-0.000880284	-0.0682167
39118	-0.00086121	-0.0677209
39157	-0.000842136	-0.0675183
39196	-0.000842136	-0.0670566
39235	-0.000937507	-0.0660527
39274	-0.00086121	-0.065035
39313	-0.000975655	-0.0631102
39352	-0.000899359	-0.0620371
39391	-0.00103288	-0.0607666
39430	-0.000994729	-0.0595423
39469	-0.00076584	-0.0581171
39508	-0.000975655	-0.0575925
39547	-0.000823062	-0.0572697
39586	-0.000880284	-0.0563576
39625	-2.00139	-37.8446
39664	-2.00145	-27.2581
39703	-2.00128	-20.9759
39742	-2.00134	-17.1844
39781	-2.00126	-14.4682
39820	-2.00134	-12.7138
39859	-2.00139	-11.4005
39898	-2.00122	-10.2614
39937	-2.00126	-9.82269
39976	-2.00116	-9.32191
40015	-2.00132	-8.91964
40054	-2.00141	-8.59809
40093	-2.00136	-8.43169
40132	-2.00126	-8.10423
40171	-2.00122	-7.96107
40210	-2.00132	-7.78695
40249	-2.0013	-7.70213
40288	-2.0012	-7.57352
40327	-2.00116	-7.38466
40366	-2.00136	-7.38166
40405	-2.00136	-7.16451
40444	-2.0012	-7.08759
40483	-2.0012	-7.06973
40522	-0.000806228	6.9883
40561	-0.000787154	1.70297
40600	-0.00086345	0.931046
40639	-0.000825302	0.658022
40678	-0.000920672	0.530071
40717	-0.000806228	0.452971
40756	-0.000882524	0.406259
40795	-0.000958821	0.368
40834	-0.000977895	0.338606
40873	-0.000996969	0.316797
40912	-0.000825302	0.298418
40951	-0.000882524	0.284496
40990	-0.00086345	0.269076
41029	-0.000977895	0.256894
41068	-0.000958821	0.247162
41107	-0.00101604	0.240634
41146	-0.000901598	0.22932
41185	-0.000787154	0.220692
41224	-0.000901598	0.212542
41263	-0.000882524	0.207645
41302	-0.000920672	0.200364
41341	-0.00109234	0.194022
41380	-0.00105419	0.18881
41419	-0.00103512	0.18395
41458	-0.000901598	0.179456
41497	-0.000901598	0.172177
41536	-0.00101604	0.16704
41575	-0.00105419	0.162038
41614	-0.000882524	0.160561
41653	-0.000920672	0.155681
41692	-0.000882524	0.152355
41731	-0.000844376	0.148865
41770	-0.000920672	0.147303
41809	-0.000882524	0.142476
41848	-0.00086345	0.138719
41887	-0.000806228	0.136349
41926	-0.000996969	0.134875
41965	-0.00101604	0.134236
42004	-0.000977895	0.132961
42043	-0.000844376	0.133079
42082	-0.00086345	0.129968
42121	-0.000901598	0.127589
42160	-0.000768079	0.121349
42199	-0.000882524	0.118257
42238	-0.000977895	0.115611
42277	-0.000882524	0.114568
42316	-0.00086345	0.112038
42355	-0.000729932	0.111742
42394	-0.00101604	0.111236
42433	-0.000787154	0.111104
42472	-0.00103512	0.110939
42511	-0.000806228	0.109193
42550	-0.000920672	0.107791
42589	-0.00101604	0.106612
42628	-0.000920672	0.107282
42667	-0.000996969	0.104861
42706	-0.000977895	0.102828
42745	-0.000977895	0.100655
42784	-0.000958821	0.10102
42823	-0.00103512	0.0985794
42862	-0.000844376	0.0973585
42901	-0.000806228	0.0963923
42940	-0.00086345	0.0962376
42979	-0.000958821	0.0949746
43018	-0.000958821	0.0933454
43057	-0.000787154	0.09231
43096	-0.000901598	0.0915927
43135	-0.00101604	0.0920925
43174	-0.000710857	0.090149
43213	2.49914	102.995
43252	2.49924	58.396
43291	2.49922	44.6265
43330	2.49912	38.4868
43369	2.49928	34.9216
43408	2.49911	32.2887
43447	2.49905	30.7827
43486	2.49922	29.6591
43525	2.49914	28.8008
43564	2.49922	27.8646
43603	2.4992	27.1254
43642	2.49914	26.8192
43681	2.49909	26.612
43720	2.49914	26.576
43759	2.4993	26.4975
43798	2.49926	26.5238
43837	2.49916	26.5187
43876	2.49918	26.5648
43915	2.49918	26.6165
43954	2.49911	26.5308
43993	2.49909	26.6207
44032	2.4992	26.6714
44071	2.49914	26.8379
44110	2.49912	26.9268
44149	2.49912	26.9059
44188	2.49918	27.0982
44227	2.49916	27.1298
44266	2.49916	27.4095
44305	2.49928	27.4315
44344	2.4992	27.4485
44383	2.49909	27.6775
44422	2.4992	27.6593
44461	2.4992	27.7557
44500	2.4992	27.8697
44539	2.49933	27.9778
44578	2.49926	27.9788
44617	2.49914	28.2869
44656	2.4992	28.2326
44695	2.49922	28.4255
44734	2.4993	28.545
44773	2.49935	28.6703
44812	2.4992	28.5968
44851	2.49924	28.7058
44890	2.4993	28.7971
44929	2.49926	28.7623
44968	2.4993	28.7108
45007	-0.000803988	-24.2184
45046	-0.000994729	-2.50118
45085	-0.000975655	-1.11607
45124	-0.000899359	-0.731004
45163	-0.000899359	-0.56442
45202	-0.00076584	-0.460174
45241	-0.000937507	-0.404281
45280	-0.000823062	-0.365578
45319	-0.00086121	-0.342697
45358	-0.00076584	-0.315709
45397	-0.000842136	-0.302411
45436	-0.000842136	-0.29251
45475	-0.000746766	-0.288259
45514	-0.000784914	-0.280024
45553	-0.000842136	-0.27592
45592	-0.000842136	-0.273135
45631	-0.000956581	-0.270752
45670	-0.000899359	-0.269571
45709	-0.000880284	-0.267767
45748	-0.000937507	-0.26971
45787	-0.000784914	-0.272766
45826	-0.000803988	-0.278013
45865	-0.000899359	-0.278476
45904	-0.000842136	-0.286654
45943	-0.000670469	-0.293849
45982	-0.00086121	-0.296799
46021	-0.000823062	-0.296521
46060	-0.000784914	-0.299215
46099	-0.000842136	-0.305863
46138	-0.00076584	-0.311428
46177	-0.000670469	-0.313806
46216	-0.000956581	-0.312303
46255	-0.000803988	-0.312332
46294	-0.00086121	-0.314023
46333	-0.000899359	-0.317342
46372	-0.000823062	-0.31501
46411	-0.000784914	-0.318097
46450	-0.00076584	-0.321413
46489	-0.000823062	-0.325735
46528	-0.000899359	-0.323633
46567	-0.000937507	-0.32575
46606	-0.000842136	-0.328988
46645	-0.000918433	-0.331691
46684	-0.0010138	-0.332494
46723	-0.000918433	-0.333355
46762	-0.000842136	-0.336968
46801	-0.00086121	-0.339087
46840	-0.000823062	-0.33836
46879	-0.000784914	-0.331207
46918	-0.000803988	-0.329606
46957	-0.000803988	-0.32642
46996	-0.000899359	-0.323872
47035	-0.000975655	-0.317312
47074	-0.000784914	-0.315715
47113	-0.000784914	-0.315423
47152	-0.00086121	-0.31603
47191	-0.000899359	-0.314979
47230	-0.000823062	-0.313886
47269	-0.000975655	-0.315469
47308	-0.000994729	-0.315741
47347	-0.000823062	-0.316538
47386	-0.000784914	-0.312013
47425	-0.000937507	-0.308967
47464	-0.000918433	-0.303948
47503	-0.000823062	-0.299927
47542	-0.000880284	-0.291843
47581	-0.000937507	-0.289308
47620	-0.000803988	-0.288332
47659	-0.00076584	-0.286814
47698	-0.000746766	-0.282297
47737	-0.000803988	-0.278362
47776	-0.000899359	-0.278485
47815	-0.000956581	-0.278968
47854	-0.000784914	-0.28029
47893	-0.00086121	-0.278262
47932	-0.000918433	-0.279632
47971	-0.00086121	-0.280943
48010	-0.00086121	-0.283372
48049	-0.000918433	-0.277921
48088	-0.000823062	-0.272479
48127	-0.000899359	-0.268706
48166	-0.000842136	-0.266828
48205	-0.000784914	-0.262674
48244	-0.000918433	-0.259257
48283	-0.000975655	-0.258443
48322	-0.000880284	-0.258543
48361	-0.000899359	-0.259568
48400	-0.000784914	-0.256889
48439	-0.00103288	-0.257138
48478	-0.000918433	-0.256777
48517	-0.000880284	-0.255093
48556	-0.000937507	-0.249725
48595	-0.000918433	-0.24815
48634	-0.000842136	-0.247155
48673	-0.00076584	-0.246477
48712	-0.000880284	-0.242549
48751	-0.00086121	-0.237475
48790	-0.000918433	-0.234398
48829	-0.000823062	-0.232602
48868	-0.000918433	-0.230852
48907	-0.000880284	-0.226085
48946	-0.000803988	-0.225727
48985	-0.000937507	-0.225441
49024	-0.000937507	-0.225498
49063	-0.00086121	-0.22179
49102	-0.00086121	-0.220703
49141	-0.000823062	-0.220862
49180	-0.000823062	-0.22153
49219	-0.00086121	-0.219872
49258	-0.000880284	-0.216758
49297	-0.000918433	-0.214817
49336	-0.00086121	-0.213472
49375	-0.00076584	-0.211959
49414	-0.000803988	-0.208791
49453	-0.000918433	-0.207624
49492	-0.00076584	-0.206205
49531	-0.000899359	-0.204949
49570	-0.000784914	-0.199772
49609	-0.000842136	-0.197248
49648	-0.000899359	-0.196114
49687	-0.00076584	-0.195601
49726	-0.000899359	-0.193273
49765	-0.000746766	-0.190584
49804	-0.000937507	-0.188686
49843	-0.000784914	-0.186557
49882	-0.000632321	-0.184163
49921	-0.000842136	-0.181335
49960	-0.000880284	-0.181517
49999	-0.000937507	-0.181054
50038	-0.000918433	-0.180968
50077	-0.000784914	-0.179388
50116	-0.00076584	-0.178201
50155	-0.000899359	-0.176791
50194	-0.000899359	-0.17499
50233	-0.000937507	-0.17061
50272	-0.000880284	-0.166987
50311	-0.000899359	-0.165821
50350	-0.000823062	-0.164785
50389	-0.000880284	-0.162871
50428	-0.000918433	-0.159446
50467	-0.000937507	-0.158373
50506	-0.00076584	-0.156707
50545	-0.00086121	-0.155901
50584	-0.00086121	-0.153129
50623	-0.000823062	-0.152612
50662	-0.000823062	-0.152064
50701	-0.000975655	-0.151943
50740	-0.000975655	-0.150267
50779	-0.000727692	-0.149037
50818	-0.000918433	-0.148136
50857	-0.000784914	-0.145406
50896	-0.000803988	-0.142731
50935	-0.000784914	-0.140026
50974	-0.000823062	-0.139324
51013	-0.000975655	-0.138811
51052	-0.000975655	-0.138253
51091	-0.000823062	-0.135712
51130	-0.000975655	-0.133662
51169	-0.00086121	-0.1318
51208	-0.000899359	-0.131135
51247	-0.000956581	-0.129864
51286	-0.000899359	-0.128776
51325	-0.000880284	-0.128121
51364	-0.000784914	-0.126525
51403	-0.000803988	-0.12448
51442	-0.000899359	-0.121628
51481	-0.00086121	-0.120689
51520	-0.00076584	-0.12006
51559	-0.000842136	-0.119904
51598	-0.00086121	-0.118831
51637	-0.00086121	-0.119198
51676	-0.000823062	-0.119676
51715	-0.000899359	-0.118044
51754	-0.000823062	-0.115711
51793	-0.000880284	-0.113153
51832	-0.000918433	-0.111342
51871	-0.000956581	-0.109722
51910	-0.000937507	-0.10635
51949	-0.000842136	-0.10388
51988	-0.00086121	-0.103102
52027	-0.000842136	-0.102297
52066	-0.00103288	-0.102236
52105	-0.000784914	-0.101284
52144	-0.000880284	-0.10142
52183	-0.000899359	-0.101322
52222	-0.000689543	-0.100334
52261	-0.00086121	-0.0981741
52300	-0.000918433	-0.096101
52339	-0.000880284	-0.0950538
52378	-0.000784914	-0.0941356
52417	-0.000956581	-0.0932151
52456	-0.000784914	-0.0908592
52495	-0.000880284	-0.0900056
52534	-0.000842136	-0.0888982
52573	-0.000937507	-0.0866377
52612	-0.000803988	-0.0839412
52651	-0.000880284	-0.0827305
52690	-0.000823062	-0.0823583
52729	-0.000842136	-0.0825316
52768	-0.00086121	-0.0826726
52807	-0.000803988	-0.0829176
52846	-0.000918433	-0.0838058
52885	-0.000784914	-0.0846256
52924	-0.000784914	-0.0842419
52963	-0.000975655	-0.0818563
53002	-0.000880284	-0.0807367
53041	-0.000823062	-0.0796844
53080	-0.000803988	-0.0779665
53119	-0.000842136	-0.0761285
53158	-0.000823062	-0.0754586
53197	-0.000937507	-0.0738095
53236	-0.00086121	-0.0722664
53275	-0.000956581	-0.0714259
53314	-0.000899359	-0.0707369
53353	-0.000803988	-0.0706037
53392	-0.00076584	-0.0700277
53431	-0.000803988	-0.0696481
53470	-0.000975655	-0.068916
53509	-0.00103288	-0.0677697
53548	-0.00076584	-0.0660228
53587	-0.000956581	-0.0645737
53626	-0.000918433	-0.0628676
53665	-0.000689543	-0.0616602
53704	-0.000918433	-0.0608142
53743	-0.000918433	-0.060273
53782	-0.000937507	-0.0600813
53821	-0.000784914	-0.0593493
53860	-0.000937507	-0.0588027
53899	-0.000956581	-0.0581963
53938	-0.000918433	-0.0575152
53977	-0.000842136	-0.0562632
54016	-2.00132	-45.2499
54055	-2.00132	-31.5724
54094	-2.00137	-25.2491
54133	-2.00122	-19.1899
54172	-2.00136	-15.22
54211	-2.0013	-12.6238
54250	-2.00137	-11.1149
54289	-2.00132	-9.94953
54328	-2.00132	-9.19966
54367	-2.00124	-8.74746
54406	-2.00134	-8.31183
54445	-2.00141	-8.00136
54484	-2.00124	-7.78706
54523	-2.00145	-7.56873
54562	-2.0013	-7.34931
54601	-2.00137	-7.21544
54640	-2.0013	-7.13091
54679	-2.00128	-6.95671
54718	-2.00122	-6.84061
54757	-2.00137	-6.79793
54796	-2.00111	-6.64103
54835	-2.00132	-6.51289
54874	-2.00139	-6.46953
54913	-0.00086345	15.0912
54952	-0.000882524	2.2432
54991	-0.000806228	1.06559
55030	-0.000806228	0.717937
55069	-0.000844376	0.563521
55108	-0.00086345	0.477731
55147	-0.000901598	0.419195
55186	-0.000882524	0.380891
55225	-0.000901598	0.350486
55264	-0.00105419	0.328495
55303	-0.000920672	0.305247
55342	-0.000768079	0.285642
55381	-0.000710857	0.272198
55420	-0.000939746	0.263269
55459	-0.000844376	0.251405
55498	-0.000844376	0.240775
55537	-0.000901598	0.230992
55576	-0.000996969	0.223188
55615	-0.000939746	0.216432
55654	-0.000844376	0.207799
55693	-0.000825302	0.200885
55732	-0.000825302	0.193214
55771	-0.00101604	0.188946
55810	-0.000939746	0.181283
55849	-0.000882524	0.174308
55888	-0.000901598	0.167888
55927	-0.000901598	0.163748
55966	-0.000787154	0.158022
56005	-0.00105419	0.152697
56044	-0.00103512	0.15451
56083	-0.000806228	0.151674
56122	-0.000996969	0.147373
56161	-0.000749005	0.140187
56200	-0.000920672	0.137592
56239	-0.000844376	0.136265
56278	-0.000977895	0.136997
56317	-0.00086345	0.134243
56356	-0.000844376	0.13204
56395	-0.000844376	0.129454
56434	-0.00086345	0.126919
56473	-0.000958821	0.124463
56512	-0.000691783	0.12216
56551	-0.000806228	0.120327
56590	-0.00086345	0.118146
56629	-0.000825302	0.116655
56668	-0.000977895	0.113694
56707	-0.00105419	0.111439
56746	-0.00086345	0.109194
56785	-0.000882524	0.109384
56824	-0.00086345	0.107656
56863	-0.000939746	0.105918
56902	-0.00086345	0.103642
56941	-0.000844376	0.102188
56980	-0.000882524	0.100041
57019	-0.000958821	0.0993937
57058	-0.000901598	0.0995108
57097	-0.000787154	0.0988062
57136	-0.000901598	0.0981461
57175	-0.000977895	0.0960997
57214	-0.000844376	0.0943418
57253	-0.000844376	0.0924379
57292	-0.000958821	0.0925189
57331	-0.000958821	0.0909816
57370	-0.000977895	0.0902262
57409	-0.00086345	0.0887784
57448	-0.000787154	0.0888326
57487	-0.000977895	0.0874148
57526	-0.000996969	0.086099
57565	-0.00105419	0.0852241
57600	-0.00086345	0.084374