File: Data_15_Experiment/CA_001_C01.txt
time/s	Ewe/V	<I>/mA
1	1.49942	175.162
40	1.49933	10.9171
79	1.4991	6.87292
118	1.49944	5.66211
157	1.49919	5.03459
196	1.49939	4.62904
235	1.49937	4.36828
274	1.49923	4.19001
313	1.49931	4.06765
352	1.49914	3.96498
391	1.49935	3.90223
430	1.49939	3.84369
469	1.49921	3.82958
508	1.49933	3.82192
547	1.49952	3.80194
586	1.49933	3.7908
625	1.4994	3.76929
664	1.49927	3.77881
703	1.49929	3.77256
742	1.49937	3.75689
781	1.49919	3.75372
820	1.49944	3.72486
859	1.49925	3.7225
898	1.49933	3.74186
937	1.49925	3.73756
976	1.49921	3.71227
1015	1.49929	3.73528
1054	1.49921	3.73598
1093	1.49929	3.71821
1132	1.49935	3.74924
1171	1.49919	3.75903
1210	1.49939	3.77663
1249	1.49925	3.76635
1288	1.49952	3.77876
1327	1.49919	3.84355
1366	1.49931	3.84276
1405	1.49927	3.83401
1444	1.49919	3.82468
1483	1.49937	3.85158
1522	1.49929	3.84893
1561	1.49939	3.87473
1600	1.49925	3.87013
1639	1.49912	3.8862
1678	1.49937	3.9018
1717	1.49918	3.8926
1756	1.49942	3.90054
1795	1.49916	3.93685
1833.95	-0.00102156	-0.765445
1872.95	-0.00102156	0.39818
1911.95	-0.00115508	0.503979
1950.95	-0.00104063	0.413775
1989.95	-0.00104063	0.336822
2028.95	-0.000983412	0.279654
2067.95	-0.00109786	0.243819
2106.95	-0.00111693	0.21748
2145.95	-0.000964338	0.196215
2184.95	-0.00100249	0.181655
2223.95	-0.00117415	0.169739
2262.95	-0.00107878	0.161699
2301.95	-0.00102156	0.152787
2340.95	-0.00104063	0.144994
2379.95	-0.00107878	0.139048
2418.95	-0.00100249	0.1334
2457.95	-0.000849894	0.128508
2496.95	-0.00092619	0.12399
2535.95	-0.00104063	0.119361
2574.95	-0.00104063	0.114756
2613.95	-0.000964338	0.112003
2652.95	-0.00105971	0.10852
2691.95	-0.00105971	0.104377
2730.95	-0.00107878	0.102426
2769.95	-0.00105971	0.0997121
2808.95	-0.000945264	0.0971762
2847.95	-0.00109786	0.0931165
2886.95	-0.00109786	0.0900151
2925.95	-0.00100249	0.0878636
2964.95	-0.000983412	0.0859293
3003.95	-0.000945264	0.0845313
3042.95	-0.00109786	0.082122
3081.95	-0.00105971	0.0801523
3120.95	-0.000945264	0.0784617
3159.95	-0.00104063	0.0762565
3198.95	-0.00113601	0.0744725
3237.95	-0.00117415	0.0727198
3276.95	-0.000868968	0.0717453
3315.95	-0.00109786	0.0700703
3354.95	-0.00109786	0.0685563
3393.95	-0.000964338	0.0672248
3432.95	-0.00119323	0.0658082
3471.95	-0.000945264	0.0651652
3510.95	-0.000964338	0.0635628
3549.95	-0.000983412	0.0624902
3588.95	-0.000888042	0.0613447
3627.95	-0.000945264	0.060888
3666.95	-0.00109786	0.0597099
3705.95	-0.00102156	0.0586131
3744.95	-0.00100249	0.057678
3783.95	-0.00113601	0.057021
3822.95	-0.000945264	0.0561498
3861.95	-0.00102156	0.0550508
3900.95	-0.000907116	0.0542751
3939.95	-0.000983412	0.0537693
3978.95	-0.00109786	0.0529825
4017.95	-0.00113601	0.0521964
4056.95	-0.00104063	0.0518226
4095.95	-0.000983412	0.0509081
4134.95	-0.00105971	0.0506888
4173.95	-0.00104063	0.0496851
4212.95	-0.00113601	0.0492692
4251.95	-0.00105971	0.0483165
4290.95	-0.00111693	0.0481537
4329.95	-0.00102156	0.047553
4368.95	-0.00113601	0.0470663
4407.95	-0.00109786	0.0463663
4446.95	-0.00109786	0.0459852
4485.95	-0.00105971	0.0456287
4524.95	-0.000964338	0.0453017
4563.95	-0.00105971	0.0447695
4602.95	-0.00100249	0.0442789
4641.95	-0.00113601	0.0443269
4680.95	-0.000983412	0.0439076
4719.95	-0.00105971	0.0435941
4758.95	-0.00111693	0.0431174
4797.95	-0.00102156	0.0431563
4836.95	-0.000792671	0.0428456
4875.95	-0.00115508	0.0424283
4914.95	-0.000964338	0.0420497
4953.95	-0.000983412	0.0418459
4992.95	-0.00107878	0.0415028
5031.95	-0.00117415	0.0411251
5070.95	-0.00104063	0.0411823
5109.95	-0.00115508	0.0411508
5148.95	-0.00100249	0.0409379
5187.95	-0.00111693	0.0405919
5226.95	-0.00100249	0.0403253
5265.95	-0.000983412	0.0401269
5304.95	-0.00109786	0.0401863
5343.95	-0.000964338	0.0400503
5382.95	-0.00092619	0.0397349
5421.95	-0.00113601	0.039478
5460.95	-0.000945264	0.0394164
5499.95	-0.00113601	0.039154
5538.95	-0.000888042	0.0389688
5577.95	-0.00102156	0.0387621
5616.95	-0.000964338	0.0386171
5655.95	-0.00111693	0.0387344
5694.95	-0.00102156	0.0384832
5733.95	-0.00100249	0.0381903
5772.95	-0.000945264	0.0379479
5811.95	-0.000945264	0.0380861
5850.95	-0.00115508	0.0378837
5889.95	-0.000964338	0.0375541
5928.95	-0.000907116	0.0374804
5967.95	-0.000983412	0.0373914
6006.95	-0.00111693	0.0371052
6045.95	-0.00113601	0.0369197
6084.95	-0.00113601	0.036724
6123.95	-0.00092619	0.0367378
6162.95	-0.00105971	0.0366294
6201.95	-0.00109786	0.0363846
6240.95	-0.00104063	0.0360776
6279.95	-0.000983412	0.0359018
6318.95	-0.00092619	0.0360277
6357.95	-0.00107878	0.0357485
6396.95	-0.00105971	0.0356553
6435.95	-0.000983412	0.0354372
6474.95	-0.00102156	0.0354525
6513.95	-0.000945264	0.0352864
6552.95	-0.000888042	0.0350527
6591.95	-0.00109786	0.0347306
6630.95	-0.000983412	0.0349992
6669.95	-0.00109786	0.0347261
6708.95	-0.00109786	0.0345824
6747.95	-0.00104063	0.0344719
6786.95	-0.00109786	0.0341469
6825.95	-0.00105971	0.0343011
6864.95	-0.00100249	0.0339284
6903.95	-0.00104063	0.0336418
6942.95	-0.000964338	0.0335233
6981.95	-0.000983412	0.0335288
7020.95	-0.00104063	0.0332343
7059.95	-0.00113601	0.0331216
7098.95	-0.000983412	0.033001
7137.95	-0.000888042	0.0328777
7176.95	-0.00107878	0.0327849
7215.95	-0.00113601	0.032586
7254.95	-0.00107878	0.0325703
7293.95	-0.00109786	0.0323842
7332.95	-0.00105971	0.0322581
7371.95	-0.00109786	0.032069
7410.95	-0.00117415	0.0320679
7449.95	-0.00111693	0.0318742
7488.95	-0.00113601	0.0318718
7527.95	-0.00104063	0.0316156
7566.95	-0.000983412	0.0314949
7605.95	-0.00105971	0.0312584
7644.95	-0.00107878	0.0311121
7683.95	-0.000983412	0.0309636
7722.95	-0.00092619	0.031104
7761.95	-0.00102156	0.0308299
7800.95	-0.000945264	0.03069
7839.95	-0.00102156	0.0305717
7878.95	-0.00111693	0.0304123
7917.95	-0.00117415	0.0303257
7956.95	-0.00104063	0.0301193
7995.95	-0.00111693	0.0302404
8034.95	-0.00092619	0.0299361
8073.95	-0.00113601	0.0298414
8112.95	-0.00104063	0.0297195
8151.95	-0.00109786	0.0296925
8190.95	-0.00111693	0.0294851
8229.95	-0.00109786	0.0294389
8268.95	-0.00109786	0.0292423
8307.95	-0.000945264	0.029099
8346.95	-0.00107878	0.0289418
8385.95	-0.00105971	0.0289643
8424.95	-0.00111693	0.0288172
8463.95	-0.00107878	0.0286219
8502.95	-0.000964338	0.0285977
8541.95	-0.00111693	0.0284487
8580.95	-0.000983412	0.0283688
8619.95	-0.00102156	0.0282569
8658.95	-0.00104063	0.0282225
8697.95	-0.00102156	0.0281681
8736.95	-0.00117415	0.0282124
8775.95	-0.00107878	0.0279842
8814.95	-0.00105971	0.0280452
8853.95	-0.00104063	0.0278445
8892.95	-0.000964338	0.0276361
8931.95	-0.00102156	0.027598
8970.95	-0.00102156	0.0275618
9009.95	-0.00100249	0.0275884
9048.95	-0.00113601	0.0273285
9087.95	-0.00102156	0.027304
9126.95	-0.00100249	0.0271106
9165.95	-0.00113601	0.0271399
9204.95	-0.00102156	0.0270276
9243.95	-0.000945264	0.0269522
9282.95	-0.00109786	0.0267851
9321.95	-0.000868968	0.0268106
9360.95	-0.000964338	0.026665
9399.95	-0.000792671	0.026638
9438.95	-0.00109786	0.0265804
9477.95	-0.000964338	0.0265339
9516.95	-0.000983412	0.0263463
9555.95	-0.00117415	0.0263109
9594.95	-0.00109786	0.0261633
9633.95	-0.000945264	0.0259626
9672.95	-0.00100249	0.0261718
9711.95	-0.00092619	0.026017
9750.95	-0.00109786	0.0259857
9789.95	-0.00105971	0.0258696
9828.95	-0.00111693	0.0257438
9867.95	-0.00113601	0.0256779
9906.95	-0.00115508	0.0255701
9945.95	-0.000907116	0.0255091
9984.95	-0.00111693	0.0254032
10024	-0.00100249	0.0254668
10063	-0.00125045	0.0253809
10102	-0.00105971	0.0253751
10141	-0.00113601	0.0252369
10180	-0.00105971	0.025212
10219	-0.00111693	0.0251301
10258	-0.000964338	0.0251347
10297	-0.00104063	0.0251339
10336	-0.00100249	0.0249616
10375	-0.00102156	0.0248251
10414	-0.00105971	0.0247762
10453	-0.00102156	0.0247958
10492	-0.00102156	0.0246495
10531	-0.00092619	0.0247421
10570	-0.000888042	0.0245433
10609	-0.00105971	0.0244771
10648	-0.00113601	0.0243997
10687	-0.00100249	0.0244351
10726	-0.00104063	0.0243327
10765	-0.00109786	0.0242682
10804	-2.00106	-158.862
10843	-2.00094	-30.7099
10882	-2.00086	-15.504
10921	-2.00092	-10.9931
10960	-2.00069	-9.00505
10999	-2.00085	-7.90265
11038	-2.00075	-7.24212
11077	-2.00088	-6.75068
11116	-2.00094	-6.41483
11155	-2.0009	-6.21108
11194	-2.00073	-6.00825
11233	-2.00086	-5.87435
11272	-2.00069	-5.84293
11311	-2.00077	-5.69075
11350	-2.001	-5.63039
11389	-2.00096	-5.6826
11428	-2.00085	-5.55182
11467	-2.00079	-5.523
11506	-2.00088	-5.50313
11545	-2.00081	-5.50405
11584	-2.00094	-5.48145
11623	-2.00092	-5.47299
11662	-2.00085	-5.65747
11701	-0.000964338	133.311
11740	-0.00102156	4.04371
11779	-0.000983412	2.68103
11818	-0.00100249	2.18469
11857	-0.00107878	1.96073
11896	-0.00102156	1.83985
11935	-0.00092619	1.73238
11974	-0.00104063	1.6697
12013	-0.00105971	1.61361
12052	-0.000907116	1.57748
12091	-0.000868968	1.50393
12130	-0.00104063	1.45402
12169	-0.00109786	1.41379
12208	-0.00109786	1.38659
12247	-0.000983412	1.333
12286	-0.00104063	1.28728
12325	-0.00100249	1.25175
12364	-0.0012123	1.22033
12403	-0.00105971	1.18954
12442	-0.00100249	1.14945
12481	-0.00083082	1.12077
12520	-0.000945264	1.09239
12559	-0.00109786	1.07402
12598	-0.000868968	1.03798
12637	-0.00102156	1.01162
12676	-0.00109786	0.988082
12715	-0.00115508	0.971018
12754	-0.000907116	0.942306
12793	-0.000983412	0.917249
12832	-0.00104063	0.894991
12871	-0.00111693	0.875031
12910	-0.00102156	0.85485
12949	-0.00102156	0.827571
12988	-0.00092619	0.806755
13027	-0.00109786	0.785834
13066	-0.00104063	0.769835
13105	-0.000888042	0.744604
13144	-0.00113601	0.723907
13183	-0.000983412	0.703826
13222	-0.00102156	0.687187
13261	-0.000983412	0.664958
13300	-0.000888042	0.643152
13339	-0.00083082	0.623634
13378	-0.00113601	0.604641
13417	-0.00092619	0.585049
13456	-0.00092619	0.561839
13495	-0.000888042	0.540542
13534	-0.00119323	0.519567
13573	-0.00104063	0.501545
13612	-0.000964338	0.478088
13651	-0.00117415	0.459837
13690	-0.00104063	0.44424
13729	-0.00107878	0.432676
13768	-0.00111693	0.419344
13807	-0.00111693	0.407614
13846	-0.00115508	0.397124
13885	-0.000907116	0.387455
13924	-0.000888042	0.377621
13963	-0.00104063	0.36642
14002	-0.000983412	0.3566
14041	-0.00115508	0.346896
14080	-0.000983412	0.339682
14119	-0.00102156	0.328829
14158	-0.00107878	0.319137
14197	-0.00107878	0.309998
14236	-0.000907116	0.301828
14275	-0.00104063	0.291904
14314	-0.000888042	0.282651
14353	-0.00107878	0.274231
14392	-0.00117415	0.266686
14431	1.49923	35.4849
14470	1.49939	22.6951
14509	1.49919	17.7157
14548	1.49927	14.8155
14587	1.49942	12.8061
14626	1.49942	11.3185
14665	1.49948	10.1341
14704	1.49918	9.18793
14743	1.49927	8.40428
14782	1.49931	7.77706
14821	1.49925	7.23815
14860	1.49931	6.78584
14899	1.49935	6.39789
14938	1.49937	6.07422
14977	1.49933	5.78633
15016	1.49942	5.52766
15055	1.49919	5.2951
15094	1.49931	5.08262
15133	1.49937	4.9052
15172	1.49927	4.71227
15211	1.49927	4.55233
15250	1.49931	4.39734
15289	1.49925	4.27092
15328	1.49939	4.1453
15367	1.49931	4.02724
15406	1.49918	3.91537
15445	1.49942	3.81328
15484	1.49927	3.72106
15523	1.49935	3.62784
15562	1.4994	3.5443
15601	1.49923	3.45485
15640	1.49927	3.38435
15679	1.49931	3.31
15718	1.49923	3.24069
15757	1.49937	3.16787
15796	1.49933	3.1115
15835	1.49918	3.05212
15874	1.49939	2.99421
15913	1.49933	2.93711
15952	1.49923	2.88371
15991	1.49931	2.83982
16030	1.49931	2.78975
16069	1.49929	2.74428
16108	1.49929	2.69252
16147	1.49918	2.65947
16186	1.49927	2.618
16225	-0.00113601	-1.72186
16264	-0.000964338	-0.365638
16303	-0.00104063	0.0064776
16342	-0.00092619	0.105335
16381	-0.000964338	0.11908
16420	-0.000983412	0.113282
16459	-0.000964338	0.102927
16498	-0.000849894	0.0930926
16537	-0.00105971	0.0858101
16576	-0.00109786	0.0802239
16615	-0.000983412	0.0752493
16654	-0.00115508	0.0708885
16693	-0.00105971	0.0670808
16732	-0.00109786	0.0645596
16771	-0.00100249	0.0629942
16810	-0.000964338	0.060361
16849	-0.000907116	0.0585205
16888	-0.000983412	0.0573805
16927	-0.000907116	0.0561119
16966	-0.00105971	0.0541205
17005	-0.00092619	0.0532212
17044	-0.00105971	0.0521582
17083	-0.00100249	0.0513764
17122	-0.00117415	0.0507122
17161	-0.00100249	0.0503366
17200	-0.00107878	0.0484544
17239	-0.00102156	0.0478462
17278	-0.00102156	0.0475423
17317	-0.00105971	0.0471173
17356	-0.00102156	0.0461705
17395	-0.000888042	0.0454706
17434	-0.00104063	0.0455726
17473	-0.000907116	0.0444529
17512	-0.00111693	0.0431866
17551	-0.00107878	0.0430173
17590	-0.000964338	0.0428131
17629	-0.00100249	0.0421375
17668	-0.00102156	0.041625
17707	-0.000849894	0.0411492
17746	-0.00102156	0.0406918
17785	-0.00105971	0.0410832
17824	-0.000983412	0.0399221
17863	-0.00105971	0.0392082
17902	-0.00100249	0.0390622
17941	-0.00100249	0.0396073
17980	-0.000983412	0.038883
18019	-0.00111693	0.037546
18058	-0.000964338	0.0375137
18097	-0.000907116	0.0381307
18136	-0.00104063	0.038051
18175	-0.00104063	0.0372293
18214	-0.00111693	0.03693
18253	-0.00119323	0.0369276
18292	-0.00109786	0.0369229
18331	-0.000983412	0.0363994
18370	-0.00100249	0.0360941
18409	-0.00092619	0.0356395
18448	-0.000907116	0.0358187
18487	-0.00109786	0.0354458
18526	-0.000945264	0.0352797
18565	-0.0012123	0.0348303
18604	-0.00111693	0.034744
18643	-0.000964338	0.0345659
18682	-0.00105971	0.0345144
18721	-0.00111693	0.0346304
18760	-0.00100249	0.0344958
18799	-0.000964338	0.0343927
18838	-0.000964338	0.0339053
18877	-0.00105971	0.0333636
18916	-0.00100249	0.0331568
18955	-0.000945264	0.0336528
18994	-0.00105971	0.0331689
19033	-0.00105971	0.0329684
19072	-0.00113601	0.0327767
19111	-0.00100249	0.0328657
19150	-0.000983412	0.0326828
19189	-0.00113601	0.0323349
19228	-0.00092619	0.0322041
19267	-0.00113601	0.0320121
19306	-0.00104063	0.0319688
19345	-0.00107878	0.0315802
19384	-0.000983412	0.0315976
19423	-0.00109786	0.0314027
19462	-0.00107878	0.0317107
19501	-0.000983412	0.0311221
19540	-0.00105971	0.0305808
19579	-0.00107878	0.0304247
19618	-0.00102156	0.0308942
19657	-0.00105971	0.0304949
19696	-0.00102156	0.0302571
19735	-0.00100249	0.0299974
19774	-0.000907116	0.0302554
19813	-0.00102156	0.0300605
19852	-0.000964338	0.0296413
19891	-0.000983412	0.0297257
19930	-0.00092619	0.0294896
19969	-0.00109786	0.0297307
20008	-0.00123138	0.0291864
20047	-0.000983412	0.0293807
20086	-0.000983412	0.0291163
20125	-0.00107878	0.0291005
20164	-0.000964338	0.0285485
20203	-0.000964338	0.0286484
20242	-0.00113601	0.0284962
20281	-0.000907116	0.0284263
20320	-0.00105971	0.0284871
20359	-0.00113601	0.0280813
20398	-0.00100249	0.0280791
20437	-0.000964338	0.0281007
20476	-0.00109786	0.0284116
20515	-0.000983412	0.0278639
20554	-0.000983412	0.0276928
20593	-0.00104063	0.0275669
20632	-0.00109786	0.0277436
20671	-0.00102156	0.0275125
20710	-0.00115508	0.0274451
20749	-0.00105971	0.0271115
20788	-0.000945264	0.0270214
20827	-0.0012123	0.0270873
20866	-0.00119323	0.02687
20905	-0.00107878	0.0269627
20944	-0.00105971	0.0267366
20983	-0.000964338	0.0269501
21022	-0.00092619	0.0264617
21061	-0.00083082	0.0264486
21100	-0.00105971	0.0262257
21139	-0.00100249	0.0267121
21178	-0.00113601	0.0262319
21217	-0.00092619	0.0261917
21256	-0.00105971	0.0263539
21295	-0.00107878	0.0264982
21334	-0.00107878	0.0262047
21373	-0.00104063	0.0259683
21412	-0.00104063	0.0260396
21451	-0.00113601	0.0256522
21490	-0.00104063	0.0259622
21529	-0.000983412	0.0255835
21568	-0.00102156	0.0254899
21607	-0.000907116	0.0253296
21646	-0.000964338	0.0256292
21685	-0.00104063	0.0252498
21724	-0.00102156	0.025164
21763	-0.00105971	0.0250086
21802	-0.00111693	0.0250313
21841	-0.000964338	0.0249002
21880	-0.000868968	0.0247463
21919	-0.00115508	0.0248029
21958	-0.000983412	0.0247717
21997	-0.000945264	0.0249038
22036	-0.00100249	0.0242977
22075	-0.00119323	0.024503
22114	-0.00102156	0.0245114
22153	-0.000888042	0.0249705
22192	-0.00104063	0.0245245
22231	-0.00109786	0.0244535
22270	-0.00102156	0.0244004
22309	-0.000964338	0.0243813
22348	-0.00123138	0.0243264
22387	-0.000983412	0.0242023
22426	-0.00100249	0.0242047
22465	-0.00105971	0.0241192
22504	-0.00083082	0.0242846
22543	-0.000983412	0.0237686
22582	-0.00105971	0.0237632
22621	-0.00105971	0.0237274
22660	-0.00115508	0.0240269
22699	-0.000964338	0.0234878
22738	-0.00115508	0.0235482
22777	-0.00113601	0.0235354
22816	-0.000945264	0.0236265
22855	-0.00102156	0.0234967
22894	-0.000964338	0.0233191
22933	-0.00104063	0.0233311
22972	-0.00104063	0.0232756
23011	-0.00107878	0.0234255
23050	-0.00092619	0.0229797
23089	-0.00102156	0.0230862
23128	-0.00111693	0.0231413
23167	-0.00092619	0.0233581
23206	-0.00102156	0.022818
23245	-0.000811746	0.0227788
23284	-0.00104063	0.0227959
23323	-0.00107878	0.023003
23362	-0.00102156	0.0227799
23401	-0.00100249	0.0225451
23440	-0.00119323	0.0225837
23479	-0.00105971	0.0225358
23518	-0.00100249	0.0227728
23557	-0.000945264	0.022438
23596	-0.00092619	0.022458
23635	-0.000888042	0.0224437
23674	-0.00100249	0.0227891
23713	-0.00105971	0.0222605
23752	-0.00113601	0.0222153
23791	-0.00107878	0.0221605
23830	-0.00105971	0.0223096
23869	-0.00102156	0.022198
23908	-0.000945264	0.0220342
23947	-0.000983412	0.0219864
23986	-0.00115508	0.0220383
24025	-0.000907116	0.022195
24064	-0.00100249	0.0218618
24103	-0.00100249	0.0219577
24142	-0.000964338	0.0217909
24181	-0.000983412	0.0220764
24220	-0.00109786	0.0215364
24259	-0.00107878	0.0216159
24298	-0.00105971	0.0216109
24337	-0.000907116	0.0218239
24376	-0.00119323	0.0215398
24415	-0.000907116	0.0214894
24454	-0.00100249	0.0215991
24493	-0.00107878	0.0215815
24532	-0.00102156	0.0216466
24571	-0.000907116	0.0212685
24610	-0.00100249	0.0214205
24649	-0.00104063	0.021294
24688	-0.000907116	0.0216324
24727	-0.000983412	0.0211893
24766	-0.00107878	0.0212038
24805	-0.000983412	0.0211907
24844	-0.00100249	0.02139
24883	-0.00105971	0.0209976
24922	-0.000964338	0.0209539
24961	-0.00107878	0.0209868
25000	-0.0012123	0.0210142
25039	-0.00104063	0.0210216
25078	-0.00105971	0.0208332
25117	-0.00105971	0.0207822
25156	-0.00105971	0.0207617
25195	-0.00102156	0.0211272
25234	-2.00083	-37.4626
25273	-2.00071	-21.4009
25312	-2.00081	-14.8481
25351	-2.00085	-11.1414
25390	-2.00088	-8.94664
25429	-2.00073	-7.52542
25468	-2.00086	-6.55462
25507	-2.00083	-5.82638
25546	-2.00085	-5.28778
25585	-2.00086	-4.92441
25624	-2.00086	-4.54841
25663	-2.00075	-4.2843
25702	-2.00081	-4.19701
25741	-2.00092	-3.91316
25780	-2.00081	-3.77141
25819	-2.00077	-3.66037
25858	-2.00081	-3.58221
25897	-2.00092	-3.49598
25936	-2.00071	-3.42499
25975	-2.00071	-3.39663
26014	-2.00085	-3.32965
26053	-2.00077	-3.30212
26092	-2.00085	-3.38995
26131	-0.00111693	3.89799
26170	-0.00104063	2.01835
26209	-0.00117415	1.50218
26248	-0.000888042	1.23062
26287	-0.00100249	1.08103
26326	-0.00105971	0.98673
26365	-0.00105971	0.926444
26404	-0.00115508	0.872296
26443	-0.000983412	0.821691
26482	-0.00111693	0.787715
26521	-0.00107878	0.7586
26560	-0.00107878	0.739614
26599	-0.00109786	0.705131
26638	-0.00113601	0.684001
26677	-0.00102156	0.663964
26716	-0.00113601	0.65502
26755	-0.000945264	0.629387
26794	-0.00111693	0.611838
26833	-0.000945264	0.59823
26872	-0.00092619	0.589846
26911	-0.00107878	0.57582
26950	-0.000983412	0.559869
26989	-0.000983412	0.548792
27028	-0.00100249	0.537919
27067	-0.00105971	0.533019
27106	-0.00109786	0.517397
27145	-0.00102156	0.507921
27184	-0.00092619	0.498897
27223	-0.00111693	0.496883
27262	-0.000983412	0.481113
27301	-0.00100249	0.47231
27340	-0.00113601	0.465093
27379	-0.000945264	0.461626
27418	-0.00105971	0.452978
27457	-0.000945264	0.443113
27496	-0.00113601	0.436926
27535	-0.00109786	0.431268
27574	-0.000945264	0.428032
27613	-0.00107878	0.41713
27652	-0.00111693	0.411331
27691	-0.00109786	0.405359
27730	-0.00100249	0.404466
27769	-0.000945264	0.394135
27808	-0.000945264	0.387813
27847	-0.00107878	0.382608
27886	-0.000888042	0.380387
27925	-0.000983412	0.373393
27964	-0.00104063	0.366263
28003	-0.000945264	0.361561
28042	-0.00107878	0.357346
28081	-0.00104063	0.354623
28120	-0.000907116	0.346121
28159	-0.00102156	0.341233
28198	-0.00100249	0.336545
28237	-0.00111693	0.335873
28276	-0.00092619	0.327253
28315	-0.00107878	0.32218
28354	-0.000983412	0.317616
28393	-0.000888042	0.31583
28432	-0.00111693	0.309607
28471	-0.00109786	0.303612
28510	-0.0012123	0.299463
28549	-0.0012123	0.295931
28588	-0.00105971	0.2931
28627	-0.00105971	0.286009
28666	-0.00100249	0.281887
28705	-0.00105971	0.277538
28744	-0.00105971	0.27625
28783	-0.00113601	0.269017
28822	1.49927	27.4851
28861	1.49931	14.7908
28900	1.49937	10.9563
28939	1.49933	9.07308
28978	1.49939	7.89695
29017	1.49929	7.07285
29056	1.4994	6.45953
29095	1.49925	5.98013
29134	1.4994	5.61046
29173	1.49933	5.28626
29212	1.49929	5.01549
29251	1.49919	4.74715
29290	1.49931	4.55082
29329	1.49942	4.36373
29368	1.49925	4.19689
29407	1.49925	4.04165
29446	1.49921	3.90926
29485	1.49937	3.78951
29524	1.49939	3.67259
29563	1.49933	3.56414
29602	1.49935	3.45981
29641	1.49939	3.37843
29680	1.49937	3.29179
29719	1.49918	3.21243
29758	1.49929	3.12646
29797	1.4995	3.0665
29836	1.49935	3.00076
29875	1.49937	2.93651
29914	1.49921	2.8708
29953	1.49929	2.81692
29992	1.49939	2.76934
30031	1.49944	2.71532
30070	1.4991	2.66456
30109	1.49925	2.60937
30148	1.49919	2.57654
30187	1.4994	2.53215
30226	1.49935	2.49068
30265	1.49933	2.43939
30304	1.49929	2.41214
30343	1.49927	2.37781
30382	1.49927	2.34024
30421	1.49921	2.29912
30460	1.49923	2.26817
30499	1.4994	2.24501
30538	1.49925	2.21228
30577	1.49937	2.18022
30616	-0.00113601	-2.11984
30655	-0.00111693	-0.475936
30694	-0.00117415	-0.0682974
30733	-0.00104063	0.0473251
30772	-0.00102156	0.0759214
30811	-0.000945264	0.078014
30850	-0.0012123	0.07593
30889	-0.000945264	0.0731708
30928	-0.000983412	0.0720061
30967	-0.00105971	0.0686199
31006	-0.00102156	0.0667375
31045	-0.00107878	0.0651068
31084	-0.000983412	0.0644043
31123	-0.00104063	0.0623863
31162	-0.00107878	0.0607383
31201	-0.00092619	0.0596297
31240	-0.00102156	0.0586938
31279	-0.000888042	0.0584926
31318	-0.00104063	0.0570573
31357	-0.00111693	0.0565043
31396	-0.000945264	0.0554412
31435	-0.00104063	0.0558568
31474	-0.000907116	0.0545651
31513	-0.00107878	0.0536923
31552	-0.00100249	0.0529812
31591	-0.00113601	0.053182
31630	-0.00117415	0.05209
31669	-0.0012123	0.051524
31708	-0.00100249	0.0513111
31747	-0.000964338	0.0510298
31786	-0.0012123	0.0505979
31825	-0.000945264	0.0495969
31864	-0.00107878	0.0493779
31903	-0.00102156	0.0490158
31942	-0.00105971	0.0495262
31981	-0.00092619	0.0480896
32020	-0.00092619	0.0476957
32059	-0.00100249	0.0474805
32098	-0.00104063	0.0479888
32137	-0.00104063	0.0469127
32176	-0.00102156	0.0463667
32215	-0.000888042	0.0461276
32254	-0.00104063	0.0461258
32293	-0.00107878	0.0459025
32332	-0.00107878	0.0450774
32371	-0.00100249	0.044787
32410	-0.00100249	0.0442774
32449	-0.00105971	0.0448539
32488	-0.00109786	0.0435451
32527	-0.00113601	0.0434383
32566	-0.00105971	0.0430602
32605	-0.000983412	0.0434431
32644	-0.00107878	0.0426559
32683	-0.00111693	0.0423212
32722	-0.00107878	0.0421174
32761	-0.00115508	0.0419453
32800	-0.00113601	0.0417013
32839	-0.000945264	0.0411954
32878	-0.000964338	0.0410699
32917	-0.000964338	0.0406396
32956	-0.00115508	0.0410284
32995	-0.00102156	0.0398414
33034	-0.00109786	0.0398042
33073	-0.00105971	0.0396356
33112	-0.00115508	0.0403209
33151	-0.00092619	0.0392134
33190	-0.00100249	0.0388154
33229	-0.00107878	0.0387619
33268	-0.00109786	0.0386804
33307	-0.00104063	0.0382748
33346	-0.000983412	0.0377932
33385	-0.00104063	0.0377486
33424	-0.000983412	0.0376326
33463	-0.00107878	0.0377609
33502	-0.00092619	0.0369129
33541	-0.00105971	0.0368283
33580	-0.000945264	0.036626
33619	-0.000983412	0.0370578
33658	-0.00115508	0.0361761
33697	-0.00102156	0.0358456
33736	-0.00111693	0.0356852
33775	-0.00104063	0.0359441
33814	-0.000945264	0.0354014
33853	-0.00105971	0.0351284
33892	-0.00100249	0.0350632
33931	-0.00100249	0.0347837
33970	-0.00100249	0.0351178
34009	-0.00100249	0.0342542
34048	-0.000983412	0.0342439
34087	-0.000964338	0.033931
34126	-0.00109786	0.0344147
34165	-0.000964338	0.0336111
34204	-0.00104063	0.0335336
34243	-0.00102156	0.0333418
34282	-0.000983412	0.0335437
34321	-0.00104063	0.0330995
34360	-0.000907116	0.0326354
34399	-0.00102156	0.0325521
34438	-0.000888042	0.0324701
34477	-0.000945264	0.0327004
34516	-0.00111693	0.0319189
34555	-0.00100249	0.0319475
34594	-0.00105971	0.031785
34633	-0.00105971	0.0322335
34672	-0.00111693	0.0314522
34711	-0.0012123	0.0311893
34750	-0.000983412	0.0312234
34789	-0.00104063	0.0313687
34828	-0.00111693	0.0309452
34867	-0.00100249	0.0306158
34906	-0.00109786	0.0305767
34945	-0.00104063	0.0304801
34984	-0.00109786	0.0307249
35023	-0.000983412	0.0300339
35062	-0.00105971	0.0301022
35101	-0.000868968	0.0300292
35140	-0.000964338	0.0303541
35179	-0.00107878	0.0294886
35218	-0.00113601	0.0295452
35257	-0.00102156	0.0293478
35296	-0.00102156	0.0296017
35335	-0.00107878	0.0290741
35374	-0.00102156	0.0288475
35413	-0.00100249	0.0287365
35452	-0.000983412	0.028735
35491	-0.00115508	0.0289292
35530	-0.00107878	0.0283406
35569	-0.00104063	0.0283111
35608	-0.00119323	0.0281941
35647	-0.00111693	0.0286277
35686	-0.00092619	0.0276922
35725	-0.000849894	0.0276613
35764	-0.00113601	0.027597
35803	-0.00104063	0.0278859
35842	-0.00107878	0.0273967
35881	-0.00109786	0.027153
35920	-0.00104063	0.0271655
35959	-0.000945264	0.0272227
35998	-0.00109786	0.0273411
36037	-0.000945264	0.0268382
36076	-0.00119323	0.0268446
36115	-0.00107878	0.026686
36154	-0.00104063	0.0271568
36193	-0.000964338	0.0263519
36232	-0.00107878	0.0263907
36271	-0.00113601	0.0262597
36310	-0.00102156	0.0266178
36349	-0.00109786	0.0261008
36388	-0.000983412	0.0258244
36427	-0.00115508	0.0259017
36466	-0.00109786	0.0257908
36505	-0.00100249	0.0256633
36544	-0.00100249	0.0253025
36583	-0.000983412	0.0253587
36622	-0.000945264	0.0253219
36661	-0.00113601	0.0257493
36700	-0.00104063	0.0249925
36739	-0.000907116	0.0250763
36778	-0.00107878	0.0250796
36817	-0.000983412	0.0254457
36856	-0.00123138	0.0248356
36895	-0.000964338	0.0246239
36934	-0.00107878	0.0246393
36973	-0.00105971	0.0246238
37012	-0.00092619	0.0246457
37051	-0.00119323	0.0242308
37090	-0.00105971	0.0242979
37129	-0.000964338	0.0241444
37168	-0.0012123	0.0245825
37207	-0.000983412	0.0239042
37246	-0.00100249	0.023898
37285	-0.00107878	0.0238639
37324	-0.00105971	0.0242589
37363	-0.00107878	0.0235868
37402	-0.0012123	0.023503
37441	-0.00083082	0.0234561
37480	-0.000983412	0.0235913
37519	-0.00104063	0.023443
37558	-0.000945264	0.0231658
37597	-0.00117415	0.0231859
37636	-0.00092619	0.0230627
37675	-0.00111693	0.0234438
37714	-0.00092619	0.0227932
37753	-0.00109786	0.0228739
37792	-0.00104063	0.0227983
37831	-0.00105971	0.0231946
37870	-0.00092619	0.0225847
37909	-0.00109786	0.0225066
37948	-0.00105971	0.0225465
37987	-0.00111693	0.0226891
38026	-0.00113601	0.0225709
38065	-0.00100249	0.0221738
38104	-0.000945264	0.022238
38143	-0.00107878	0.0221268
38182	-0.00125045	0.0224891
38221	-0.000945264	0.0219177
38260	-0.00111693	0.0219547
38299	-0.000907116	0.0219049
38338	-0.00107878	0.0223511
38377	-0.00105971	0.0216716
38416	-0.00109786	0.0216267
38455	-0.000964338	0.0216379
38494	-0.00109786	0.0217465
38533	-0.00123138	0.0215564
38572	-0.00092619	0.0213105
38611	-0.000983412	0.0213514
38650	-0.00102156	0.0212741
38689	-0.000964338	0.0215821
38728	-0.000964338	0.0209663
38767	-0.000849894	0.0210941
38806	-0.00109786	0.020984
38845	-0.00104063	0.0214435
38884	-0.00111693	0.0207282
38923	-0.00092619	0.0207747
38962	-0.00102156	0.0207409
39001	-0.000945264	0.0209115
39040	-0.000983412	0.0207114
39079	-0.00111693	0.020431
39118	-0.00104063	0.0205286
39157	-0.000907116	0.0204508
39196	-0.00102156	0.0206874
39235	-0.00107878	0.0201613
39274	-0.00111693	0.0202621
39313	-0.00092619	0.0203037
39352	-0.00117415	0.0206735
39391	-0.000964338	0.0200218
39430	-0.000868968	0.019972
39469	-0.000964338	0.0200664
39508	-0.00105971	0.02024
39547	-0.00105971	0.0199681
39586	-0.000964338	0.0197451
39625	-2.00085	-29.947
39664	-2.00079	-16.1291
39703	-2.00086	-11.4829
39742	-2.00092	-8.94603
39781	-2.00086	-7.45115
39820	-2.00079	-6.31246
39859	-2.00079	-5.57031
39898	-2.00094	-5.05978
39937	-2.0009	-4.58437
39976	-2.00092	-4.23542
40015	-2.00096	-3.96201
40054	-2.00075	-3.7625
40093	-2.00085	-3.5482
40132	-2.00096	-3.39031
40171	-2.00096	-3.36971
40210	-2.00094	-3.15896
40249	-2.00081	-3.04652
40288	-2.001	-3.00304
40327	-2.00081	-2.8965
40366	-2.00077	-2.83505
40405	-2.00075	-2.77296
40444	-2.00088	-2.77995
40483	-2.00086	-2.68268
40522	-0.00111693	5.0001
40561	-0.00100249	2.02954
40600	-0.000983412	1.29424
40639	-0.00102156	0.99481
40678	-0.00111693	0.832887
40717	-0.00100249	0.739819
40756	-0.000964338	0.660457
40795	-0.00115508	0.607684
40834	-0.00107878	0.56691
40873	-0.000888042	0.539155
40912	-0.00109786	0.507003
40951	-0.00109786	0.480097
40990	-0.00100249	0.461771
41029	-0.00111693	0.448138
41068	-0.000983412	0.435394
41107	-0.00092619	0.420091
41146	-0.000907116	0.40977
41185	-0.00105971	0.400244
41224	-0.00102156	0.395811
41263	-0.00092619	0.382986
41302	-0.000983412	0.375112
41341	-0.00107878	0.367846
41380	-0.00102156	0.365274
41419	-0.000964338	0.355289
41458	-0.00113601	0.348122
41497	-0.00109786	0.342545
41536	-0.00109786	0.338993
41575	-0.00107878	0.33409
41614	-0.00104063	0.326553
41653	-0.00100249	0.322076
41692	-0.00109786	0.317604
41731	-0.00111693	0.316068
41770	-0.00100249	0.308161
41809	-0.00107878	0.303986
41848	-0.00107878	0.299724
41887	-0.000945264	0.299104
41926	-0.000964338	0.292299
41965	-0.000964338	0.28776
42004	-0.00100249	0.284202
42043	-0.00102156	0.28204
42082	-0.00104063	0.27826
42121	-0.00100249	0.272995
42160	-0.000945264	0.270045
42199	-0.00105971	0.266951
42238	-0.00104063	0.265802
42277	-0.00104063	0.259717
42316	-0.000983412	0.256328
42355	-0.00102156	0.253091
42394	-0.000907116	0.252894
42433	-0.00113601	0.247266
42472	-0.00102156	0.243797
42511	-0.00125045	0.241132
42550	-0.00107878	0.23957
42589	-0.00113601	0.236144
42628	-0.00100249	0.231976
42667	-0.00092619	0.229287
42706	-0.000945264	0.226671
42745	-0.00107878	0.225392
42784	-0.000964338	0.220395
42823	-0.00109786	0.21782
42862	-0.00115508	0.214963
42901	-0.00104063	0.214607
42940	-0.00100249	0.209703
42979	-0.00113601	0.206702
43018	-0.00105971	0.204183
43057	-0.00104063	0.202927
43096	-0.00109786	0.199756
43135	-0.00109786	0.195941
43174	-0.00115508	0.193658
43213	1.4994	27.7743
43252	1.49923	11.6862
43291	1.49931	8.15308
43330	1.49935	6.52374
43369	1.49927	5.60381
43408	1.49931	4.97348
43447	1.49929	4.51877
43486	1.49935	4.18603
43525	1.49914	3.91478
43564	1.49925	3.68628
43603	1.49919	3.49994
43642	1.49914	3.36101
43681	1.49927	3.23025
43720	1.49944	3.11989
43759	1.49927	3.00985
43798	1.49916	2.93782
43837	1.49927	2.85984
43876	1.49916	2.78664
43915	1.49937	2.70755
43954	1.49931	2.65521
43993	1.49935	2.6039
44032	1.49929	2.54679
44071	1.49935	2.49162
44110	1.49925	2.43914
44149	1.49942	2.40825
44188	1.49927	2.36494
44227	1.49929	2.32503
44266	1.49931	2.27127
44305	1.49927	2.25105
44344	1.49921	2.21916
44383	1.49927	2.18561
44422	1.49948	2.14
44461	1.49931	2.11562
44500	1.4994	2.09377
44539	1.49933	2.06399
44578	1.49927	2.03132
44617	1.49927	1.99455
44656	1.49927	1.98796
44695	1.49914	1.96636
44734	1.49929	1.94871
44773	1.49937	1.90633
44812	1.49925	1.89909
44851	1.49927	1.89026
44890	1.49937	1.87245
44929	1.4995	1.83686
44968	1.49927	1.81494
45007	-0.00107878	-3.70907
45046	-0.000888042	-0.479592
45085	-0.00102156	-0.102488
45124	-0.00109786	-0.00365328
45163	-0.00092619	0.0243305
45202	-0.000964338	0.0340217
45241	-0.00109786	0.0384926
45280	-0.00100249	0.0402515
45319	-0.000964338	0.0408358
45358	-0.00105971	0.0416971
45397	-0.00109786	0.0420376
45436	-0.00109786	0.0427902
45475	-0.000849894	0.0420232
45514	-0.000964338	0.0421823
45553	-0.00100249	0.0420242
45592	-0.000907116	0.0427267
45631	-0.000983412	0.0416066
45670	-0.00105971	0.0414635
45709	-0.00100249	0.0414296
45748	-0.00092619	0.0415519
45787	-0.00105971	0.0409518
45826	-0.000945264	0.0404123
45865	-0.00109786	0.0403636
45904	-0.00111693	0.0400033
45943	-0.00104063	0.0403498
45982	-0.00107878	0.0393651
46021	-0.00092619	0.0393136
46060	-0.00100249	0.0389762
46099	-0.000964338	0.0393943
46138	-0.000945264	0.0383482
46177	-0.00111693	0.0382487
46216	-0.00105971	0.0379851
46255	-0.00107878	0.038149
46294	-0.00109786	0.0375408
46333	-0.00102156	0.0369956
46372	-0.000964338	0.0369825
46411	-0.0012123	0.0368712
46450	-0.00111693	0.0367898
46489	-0.00092619	0.0360242
46528	-0.000907116	0.0359655
46567	-0.00104063	0.0357059
46606	-0.00104063	0.0361369
46645	-0.0012123	0.0351002
46684	-0.00113601	0.0349823
46723	-0.000964338	0.034773
46762	-0.000983412	0.0351449
46801	-0.00113601	0.0345094
46840	-0.00109786	0.0340631
46879	-0.00113601	0.0339666
46918	-0.00113601	0.0338214
46957	-0.000945264	0.0338238
46996	-0.00092619	0.0331291
47035	-0.00092619	0.0331575
47074	-0.00105971	0.03285
47113	-0.00109786	0.033363
47152	-0.000868968	0.0323635
47191	-0.00100249	0.0323954
47230	-0.00104063	0.0322384
47269	-0.00113601	0.0325499
47308	-0.00107878	0.0318668
47347	-0.00105971	0.0316033
47386	-0.00105971	0.031498
47425	-0.00105971	0.0313894
47464	-0.00100249	0.031272
47503	-0.00092619	0.030693
47542	-0.00100249	0.0307543
47581	-0.00102156	0.0306228
47620	-0.000983412	0.0310118
47659	-0.00100249	0.0300686
47698	-0.00107878	0.0301407
47737	-0.00105971	0.0299653
47776	-0.00100249	0.0303888
47815	-0.00115508	0.0296979
47854	-0.00111693	0.0293886
47893	-0.00102156	0.0294356
47932	-0.00105971	0.0293685
47971	-0.00111693	0.0292686
48010	-0.00109786	0.0287767
48049	-0.00111693	0.0287897
48088	-0.00102156	0.0286132
48127	-0.00115508	0.0290361
48166	-0.00111693	0.0282273
48205	-0.00102156	0.0281331
48244	-0.00109786	0.0280708
48283	-0.00107878	0.0284689
48322	-0.00100249	0.0277883
48361	-0.00104063	0.0276798
48400	-0.00111693	0.0276669
48439	-0.00111693	0.0275998
48478	-0.0012123	0.0274655
48517	-0.000964338	0.0271127
48556	-0.000983412	0.0271174
48595	-0.00092619	0.0269928
48634	-0.00111693	0.0273855
48673	-0.000983412	0.0266344
48712	-0.00109786	0.0266019
48751	-0.000983412	0.0264162
48790	-0.00092619	0.0268218
48829	-0.000964338	0.0261317
48868	-0.00107878	0.0260516
48907	-0.00100249	0.0260546
48946	-0.00102156	0.0261024
48985	-0.00111693	0.0259868
49024	-0.00092619	0.0256028
49063	-0.00107878	0.0256007
49102	-0.00105971	0.0254531
49141	-0.00109786	0.0258755
49180	-0.000945264	0.0251312
49219	-0.000945264	0.0251682
49258	-0.00105971	0.0250397
49297	-0.00115508	0.0254414
49336	-0.000945264	0.0249485
49375	-0.00105971	0.0247468
49414	-0.00100249	0.0246962
49453	-0.000964338	0.0248308
49492	-0.00123138	0.0246148
49531	-0.00105971	0.0243131
49570	-0.00107878	0.0243562
49609	-0.00100249	0.02431
49648	-0.00104063	0.0245316
49687	-0.0012123	0.0238659
49726	-0.00111693	0.0239484
49765	-0.00105971	0.023836
49804	-0.00100249	0.0242227
49843	-0.00104063	0.023588
49882	-0.00104063	0.0235428
49921	-0.00109786	0.0235028
49960	-0.00104063	0.0236627
49999	-0.00102156	0.0233931
50038	-0.000964338	0.0231594
50077	-0.00109786	0.0231856
50116	-0.00107878	0.0231251
50155	-0.00104063	0.0232822
50194	-0.000868968	0.022712
50233	-0.000945264	0.0227757
50272	-0.00109786	0.0226884
50311	-0.00104063	0.0231413
50350	-0.00105971	0.0224252
50389	-0.00107878	0.0224705
50428	-0.000888042	0.0224674
50467	-0.00100249	0.0226532
50506	-0.000945264	0.022356
50545	-0.00100249	0.0220922
50584	-0.000983412	0.0221322
50623	-0.000945264	0.0220913
50662	-0.000945264	0.0223183
50701	-0.00104063	0.0217641
50740	-0.00115508	0.0218427
50779	-0.00105971	0.021732
50818	-0.00115508	0.0221864
50857	-0.00107878	0.021494
50896	-0.000983412	0.0214973
50935	-0.0012123	0.0214253
50974	-0.00092619	0.0216553
51013	-0.000983412	0.0213498
51052	-0.000983412	0.0211758
51091	-0.00117415	0.021215
51130	-0.00107878	0.0211519
51169	-0.00105971	0.0213187
51208	-0.00105971	0.0208474
51247	-0.00100249	0.0209218
51286	-0.00105971	0.0208278
51325	-0.00111693	0.0212571
51364	-0.000868968	0.020588
51403	-0.00105971	0.020703
51442	-0.00105971	0.0205781
51481	-0.000964338	0.0208189
51520	-0.00115508	0.0204641
51559	-0.00104063	0.0203629
51598	-0.00104063	0.0203869
51637	-0.000945264	0.0203537
51676	-0.00104063	0.0204872
51715	-0.00117415	0.02003
51754	-0.000945264	0.0199782
51793	-0.00104063	0.0200176
51832	-0.00105971	0.0205373
51871	-0.00107878	0.0197772
51910	-0.000868968	0.0198398
51949	-0.00111693	0.0198469
51988	-0.00104063	0.0201385
52027	-0.00092619	0.0196971
52066	-0.000868968	0.0196578
52105	-0.00102156	0.0196011
52144	-0.00107878	0.0195445
52183	-0.00123138	0.0196547
52222	-0.00107878	0.019303
52261	-0.000983412	0.0193873
52300	-0.00100249	0.0192963
52339	-0.00107878	0.0196758
52378	-0.00107878	0.019075
52417	-0.00107878	0.0191484
52456	-0.00109786	0.019108
52495	-0.00105971	0.0194213
52534	-0.00115508	0.0189649
52573	-0.00109786	0.0188901
52612	-0.00105971	0.0189395
52651	-0.000868968	0.0189416
52690	-0.000983412	0.0189152
52729	-0.000983412	0.0186197
52768	-0.00105971	0.018715
52807	-0.00105971	0.0185961
52846	-0.000945264	0.0190492
52885	-0.00105971	0.0184651
52924	-0.0012886	0.0184669
52963	-0.00107878	0.0184867
53002	-0.00102156	0.0187962
53041	-0.000945264	0.0183438
53080	-0.00115508	0.018234
53119	-0.00109786	0.0182255
53158	-0.00102156	0.0183343
53197	-0.00105971	0.0182911
53236	-0.00105971	0.0179856
53275	-0.0012123	0.0181021
53314	-0.000964338	0.0180555
53353	-0.00107878	0.0183923
53392	-0.00113601	0.0178138
53431	-0.000945264	0.0179122
53470	-0.00113601	0.0178604
53509	-0.00117415	0.0182634
53548	-0.00100249	0.0177358
53587	-0.00115508	0.0176539
53626	-0.00113601	0.0176696
53665	-0.00104063	0.0177406
53704	-0.00100249	0.0177241
53743	-0.00111693	0.0174554
53782	-0.00107878	0.0175472
53821	-0.00100249	0.0174589
53860	-0.00100249	0.0177954
53899	-0.00102156	0.0172831
53938	-0.00109786	0.0173609
53977	-0.00102156	0.0173054
54016	-2.00079	-29.6845
54055	-2.001	-13.1707
54094	-2.00088	-9.14039
54133	-2.00088	-7.17915
54172	-2.00086	-5.98837
54211	-2.0009	-5.3304
54250	-2.001	-4.6919
54289	-2.00096	-4.28353
54328	-2.00086	-4.01862
54367	-2.00096	-3.73644
54406	-2.00086	-3.50949
54445	-2.00085	-3.33414
54484	-2.001	-3.22042
54523	-2.00092	-3.07822
54562	-2.00096	-2.9673
54601	-2.00073	-2.98551
54640	-2.00088	-2.80027
54679	-2.00098	-2.72846
54718	-2.00071	-2.74584
54757	-2.00104	-2.61983
54796	-2.00083	-2.56452
54835	-2.00085	-2.52213
54874	-2.0009	-2.50822
54913	-0.00111693	7.45824
54952	-0.00102156	2.27693
54991	-0.00100249	1.35196
55030	-0.00102156	0.978276
55069	-0.00104063	0.778678
55108	-0.00107878	0.656817
55147	-0.00105971	0.578464
55186	-0.00107878	0.52234
55225	-0.00102156	0.478823
55264	-0.00102156	0.439771
55303	-0.00111693	0.410749
55342	-0.0012123	0.386126
55381	-0.00104063	0.368711
55420	-0.000907116	0.347577
55459	-0.00100249	0.332423
55498	-0.00092619	0.320189
55537	-0.00117415	0.312405
55576	-0.00111693	0.302854
55615	-0.00115508	0.294972
55654	-0.00109786	0.289479
55693	-0.00111693	0.284904
55732	-0.0012123	0.280623
55771	-0.00100249	0.273584
55810	-0.00119323	0.26895
55849	-0.00113601	0.264289
55888	-0.00115508	0.26206
55927	-0.000964338	0.255403
55966	-0.00111693	0.251162
56005	-0.000964338	0.247158
56044	-0.00102156	0.24529
56083	-0.000945264	0.240236
56122	-0.00109786	0.235815
56161	-0.000964338	0.232527
56200	-0.00109786	0.229961
56239	-0.00104063	0.227283
56278	-0.00119323	0.222456
56317	-0.00111693	0.219522
56356	-0.000964338	0.216494
56395	-0.00100249	0.215338
56434	-0.000849894	0.210453
56473	-0.00092619	0.20744
56512	-0.00104063	0.204582
56551	-0.000907116	0.203495
56590	-0.00113601	0.199293
56629	-0.00104063	0.19598
56668	-0.000888042	0.193372
56707	-0.00117415	0.19145
56746	-0.00105971	0.189005
56785	-0.00107878	0.185272
56824	-0.00111693	0.182851
56863	-0.00102156	0.180446
56902	-0.00107878	0.17925
56941	-0.00105971	0.175135
56980	-0.00109786	0.172678
57019	-0.000964338	0.170021
57058	-0.00105971	0.168963
57097	-0.00102156	0.165131
57136	-0.00109786	0.162347
57175	-0.00111693	0.159974
57214	-0.00115508	0.158186
57253	-0.000983412	0.155744
57292	-0.00100249	0.152486
57331	-0.000907116	0.150341
57370	-0.00083082	0.14796
57409	-0.00109786	0.146712
57448	-0.00102156	0.143158
57487	-0.00105971	0.140961
57526	-0.00109786	0.138722
57565	-0.00102156	0.137733
57600	-0.000983412	0.134703